date,time,millis,ax,ay,az,rollrate,pitchrate,yawrate,roll,pitch,yaw,speed,course,latitude,longitude,altitude,pdop,hdop,vdop,epe,fix,satellites_view,satellites_used,temp
140214,74852200,1392364131182.354,-0.6471,-0.2059,-10.6003,0.6857,-0.7428,0.8571,-0.5,0.76,130.6,0.0,0.0,51.029725,13.731513,0.0,4.15,2.64,3.2,3.12,3,7,5,30.86
140214,74852300,1392364131233.481,-0.9806,0.451,-10.3061,-0.5142,-0.6285,1.0857,-0.53,0.78,130.5799,52.96,126.42,51.029725,13.731513,131.23,4.15,2.64,3.2,3.12,3,7,5,30.86
140214,74852300,1392364131253.4958,-0.8237,0.4216,-10.6101,-0.5142,-0.0571,1.1428,-0.55,0.77,130.55,52.96,126.42,51.029725,13.731513,131.23,4.15,2.64,3.2,3.12,3,7,5,30.86
140214,74852300,1392364131277.7,-0.6962,-0.0098,-10.414,0.3428,0.2857,1.1428,-0.56,0.76,130.53,52.96,126.42,51.029725,13.731513,131.23,4.15,2.64,3.2,3.12,3,7,5,30.86
140214,74852300,1392364131309.133,-0.7256,-0.4412,-9.8354,0.5142,1.0857,1.1428,-0.5699,0.78,130.51,52.96,126.42,51.029725,13.731513,131.23,4.15,2.64,3.2,3.12,3,7,5,30.86
140214,74852300,1392364131353.522,-0.2059,0.0882,-9.806,0.8,2.1142,1.3714,-0.5699,0.77,130.49,52.96,126.42,51.029717,13.73153,131.23,4.15,2.64,3.19,3.11,3,7,5,30.86
140214,74852400,1392364131382.654,-0.1961,0.1274,-9.7276,0.7428,1.7142,1.4285,-0.58,0.79,130.46,52.96,126.55,51.029717,13.73153,131.26,4.15,2.64,3.19,3.11,3,7,5,30.86
140214,74852400,1392364131410.864,-0.4314,-0.2255,-10.4042,0.9142,0.2857,1.4285,-0.5999,0.82,130.44,52.96,126.55,51.029717,13.73153,131.26,4.15,2.64,3.19,3.11,3,7,5,30.86
140214,74852400,1392364131430.603,-1.059,-0.0784,-10.208,1.0857,0.3428,1.4285,-0.61,0.84,130.41,52.96,126.55,51.029717,13.73153,131.26,4.15,2.64,3.19,3.11,3,7,5,30.86
140214,74852400,1392364131469.7102,-0.8433,-0.3628,-10.4042,1.2,0.8,1.6571,-0.61,0.87,130.38,52.96,126.55,51.029717,13.73153,131.26,4.15,2.64,3.19,3.11,3,7,5,30.86
140214,74852400,1392364131509.2559,-1.1865,0.0,-9.6883,1.0857,-0.4,1.4285,-0.62,0.88,130.35,52.96,126.55,51.029709,13.731547,131.26,4.14,2.64,3.19,3.1,3,7,5,30.86
140214,74852500,1392364131534.596,-0.1274,-0.2451,-10.3944,1.4285,0.6857,1.3142,-0.6599,0.93,130.3299,52.94,126.05,51.029709,13.731547,131.21,4.14,2.64,3.19,3.1,3,7,5,30.86
140214,74852500,1392364131553.608,-0.0294,-0.2353,-9.5216,1.9428,1.6571,1.4857,-0.6599,0.96,130.3,52.94,126.05,51.029709,13.731547,131.21,4.14,2.64,3.19,3.1,3,7,5,30.86
140214,74852500,1392364131585.163,0.8237,-0.5589,-9.9923,2.1142,2.6857,1.3714,-0.6899,1.01,130.27,52.94,126.05,51.029709,13.731547,131.21,4.14,2.64,3.19,3.1,3,7,5,30.86
140214,74852500,1392364131616.873,0.3824,-0.8629,-8.9333,2.0,2.0571,1.3714,-0.6999,1.04,130.24,52.94,126.05,51.029709,13.731547,131.21,4.14,2.64,3.19,3.1,3,7,5,30.86
140214,74852500,1392364131646.6938,0.1961,-0.4216,-9.7668,1.4285,2.7428,1.2571,-0.75,1.09,130.21,52.94,126.05,51.029701,13.731564,131.21,4.15,2.64,3.2,3.1,3,7,5,30.86
140214,74852600,1392364131689.534,0.3824,-0.4118,-9.7962,1.6571,0.9714,1.2571,-0.7599,1.12,130.18,52.91,126.07,51.029701,13.731564,131.24,4.15,2.64,3.2,3.1,3,7,5,30.86
140214,74852600,1392364131725.125,0.3235,-0.5295,-9.9825,1.6571,0.8571,1.3714,-0.7899,1.16,130.15,52.91,126.07,51.029701,13.731564,131.24,4.15,2.64,3.2,3.1,3,7,5,30.86
140214,74852600,1392364131765.1948,0.2157,-0.1667,-9.8354,1.8857,0.6857,1.2,-0.81,1.18,130.12,52.91,126.07,51.029701,13.731564,131.24,4.15,2.64,3.2,3.1,3,7,5,30.86
140214,74852600,1392364131785.286,-0.2647,-0.3137,-10.0315,1.3714,0.5714,1.1428,-0.83,1.22,130.1,52.91,126.07,51.029701,13.731564,131.24,4.15,2.64,3.2,3.1,3,7,5,30.86
140214,74852600,1392364131837.048,0.657,-0.3235,-10.0315,1.4285,0.8,1.2571,-0.86,1.25,130.07,52.91,126.07,51.029693,13.731581,131.24,4.14,2.64,3.19,3.1,3,7,5,30.86
140214,74852700,1392364132056.668,0.3039,-0.3235,-9.9237,1.2,1.3714,1.4857,-0.8799,1.29,130.04,52.87,126.28,51.029693,13.731581,131.24,4.14,2.64,3.19,3.1,3,7,5,30.86
140214,74852700,1392364132091.719,0.657,-0.049,-9.8844,2.1142,2.3428,1.3142,-0.9099,1.32,130.0,52.87,126.28,51.029693,13.731581,131.24,4.14,2.64,3.19,3.1,3,7,5,30.86
140214,74852700,1392364132124.7039,0.657,-0.049,-10.1688,1.6571,2.1142,1.6571,-0.9199,1.34,129.97,52.87,126.28,51.029693,13.731581,131.24,4.14,2.64,3.19,3.1,3,7,5,30.86
140214,74852700,1392364132153.807,-0.4118,-0.5785,-10.3453,1.3142,0.6857,1.7714,-0.9499,1.3899,129.93,52.87,126.28,51.029693,13.731581,131.24,4.14,2.64,3.19,3.1,3,7,5,30.86
140214,74852700,1392364132189.311,-0.2353,-0.5197,-10.2767,0.4,0.2285,1.6,-0.96,1.42,129.9,52.87,126.28,51.029685,13.731598,131.24,4.15,2.64,3.2,3.09,3,7,5,30.86
140214,74852800,1392364132233.564,-1.0492,-0.353,-10.4728,0.2285,-0.9142,1.7714,-0.9799,1.44,129.86,52.86,125.65,51.029685,13.731598,131.24,4.15,2.64,3.2,3.09,3,7,5,30.86
140214,74852800,1392364132249.243,-0.9413,-0.1765,-10.5709,-0.0571,-0.8,1.7714,-1.02,1.48,129.8299,52.86,125.65,51.029685,13.731598,131.24,4.15,2.64,3.2,3.09,3,7,5,30.86
140214,74852800,1392364132328.435,-0.6177,-0.5589,-10.159,-0.1142,-0.1142,2.0,-1.0399,1.51,129.79,52.86,125.65,51.029685,13.731598,131.24,4.15,2.64,3.2,3.09,3,7,5,30.86
140214,74852800,1392364132366.009,-0.7256,-0.5687,-9.9237,-0.5714,0.8571,1.8285,-1.08,1.54,129.75,52.86,125.65,51.029685,13.731598,131.24,4.15,2.64,3.2,3.09,3,7,5,30.86
140214,74852800,1392364132406.117,0.1078,-0.1372,-10.0904,-0.2857,1.5428,1.9428,-1.0999,1.54,129.71,52.86,125.65,51.029677,13.731615,131.24,4.14,2.64,3.19,3.08,3,7,5,30.86
140214,74852900,1392364132469.198,-0.3922,-0.2843,-10.0021,0.1714,2.0571,1.8285,-1.1399,1.57,129.67,52.82,125.76,51.029677,13.731615,131.27,4.14,2.64,3.19,3.08,3,7,5,30.86
140214,74852900,1392364132492.9731,-0.6962,-0.4608,-10.1688,-0.2285,0.5142,2.1142,-1.1399,1.59,129.62,52.82,125.76,51.029677,13.731615,131.27,4.14,2.64,3.19,3.08,3,7,5,30.86
140214,74852900,1392364132539.378,-1.2257,-0.4804,-9.7374,0.0,0.1142,2.0,-1.1699,1.6,129.5799,52.82,125.76,51.029677,13.731615,131.27,4.14,2.64,3.19,3.08,3,7,5,30.86
140214,74852900,1392364132565.156,-1.1276,-0.6177,-10.0904,-0.1714,-0.1714,2.0,-1.1899,1.6299,129.54,52.82,125.76,51.029677,13.731615,131.27,4.14,2.64,3.19,3.08,3,7,5,30.86
140214,74852900,1392364132600.221,-1.0296,-0.4804,-10.9239,-0.0571,0.0571,2.2285,-1.2199,1.65,129.5,52.82,125.76,51.029669,13.731632,131.27,4.15,2.64,3.19,3.08,3,7,5,30.86
140214,74853000,1392364132632.011,-0.353,-0.6275,-9.9335,0.4571,0.7428,2.0,-1.24,1.66,129.45,52.79,125.48,51.029669,13.731632,131.25,4.15,2.64,3.19,3.08,3,7,5,30.86
140214,74853000,1392364132668.4238,-0.755,-0.7452,-9.3647,0.6857,1.3142,2.2285,-1.27,1.68,129.41,52.79,125.48,51.029669,13.731632,131.25,4.15,2.64,3.19,3.08,3,7,5,30.86
140214,74853000,1392364132695.525,0.3334,-0.7746,-9.7374,0.8,1.6571,1.8857,-1.3,1.71,129.37,52.79,125.48,51.029669,13.731632,131.25,4.15,2.64,3.19,3.08,3,7,5,30.86
140214,74853000,1392364132724.9119,0.2255,-0.7452,-9.3647,0.4571,1.6,1.9428,-1.3199,1.72,129.32,52.79,125.48,51.029669,13.731632,131.25,4.15,2.64,3.19,3.08,3,7,5,30.86
140214,74853000,1392364132752.144,1.0786,-1.1473,-9.3059,0.8571,2.0,1.9428,-1.37,1.76,129.28,52.79,125.48,51.029662,13.731649,131.25,4.14,2.64,3.2,3.07,3,7,5,30.86
140214,74853100,1392364132796.61,-0.2157,-0.7158,-9.9727,1.0285,0.2285,1.9428,-1.4,1.78,129.24,52.75,125.47,51.029662,13.731649,131.29,4.14,2.64,3.2,3.07,3,7,5,30.86
140214,74853100,1392364132812.9448,-0.0686,-0.451,-10.3257,0.5714,0.2857,2.0,-1.43,1.8,129.19,52.75,125.47,51.029662,13.731649,131.29,4.14,2.64,3.2,3.07,3,7,5,30.86
140214,74853100,1392364132845.999,0.5491,-0.2843,-9.2961,1.2571,0.7428,1.8857,-1.4499,1.8,129.15,52.75,125.47,51.029662,13.731649,131.29,4.14,2.64,3.2,3.07,3,7,5,30.86
140214,74853100,1392364132863.2559,0.0196,-0.0784,-9.9335,1.2,1.4285,1.8857,-1.49,1.83,129.1,52.75,125.47,51.029662,13.731649,131.29,4.14,2.64,3.2,3.07,3,7,5,30.86
140214,74853100,1392364132916.51,0.6668,0.1667,-9.7177,0.9714,1.2,1.8285,-1.4799,1.82,129.05,52.75,125.47,51.029654,13.731666,131.29,4.14,2.64,3.19,3.06,3,7,5,30.86
140214,74853200,1392364132962.147,0.3137,-0.1568,-10.2277,1.0285,2.1714,2.0,-1.5,1.84,129.0,52.72,124.91,51.029654,13.731666,131.3,4.14,2.64,3.19,3.06,3,7,5,30.86
140214,74853200,1392364132996.127,0.9904,-0.402,-9.551,1.5428,2.2285,2.0,-1.4799,1.83,128.95,52.72,124.91,51.029654,13.731666,131.3,4.14,2.64,3.19,3.06,3,7,5,30.86
140214,74853200,1392364133021.117,-0.6864,-0.0784,-9.8452,1.3142,1.3714,2.2285,-1.5099,1.87,128.9,52.72,124.91,51.029654,13.731666,131.3,4.14,2.64,3.19,3.06,3,7,5,30.86
140214,74853200,1392364133046.245,-0.3039,-0.3039,-9.3451,0.9142,0.8,2.1714,-1.5,1.88,128.85,52.72,124.91,51.029654,13.731666,131.3,4.14,2.64,3.19,3.06,3,7,5,30.86
140214,74853200,1392364133094.411,-0.7942,-0.6471,-10.6395,1.4857,-0.1714,2.2285,-1.5,1.89,128.79,52.72,124.91,51.029647,13.731684,131.3,4.15,2.64,3.2,3.06,3,7,5,30.86
140214,74853300,1392364133122.229,-0.7844,-0.5785,-11.0612,1.0857,0.1714,2.1142,-1.5,1.92,128.74,52.7,124.78,51.029647,13.731684,131.32,4.15,2.64,3.2,3.06,3,7,5,30.86
140214,74853300,1392364133162.292,-0.8237,-0.1667,-9.6491,0.8,0.6857,2.2285,-1.4799,1.91,128.69,52.7,124.78,51.029647,13.731684,131.32,4.15,2.64,3.2,3.06,3,7,5,30.86
140214,74853300,1392364133205.1748,-0.049,-0.4804,-9.2863,0.8,2.6285,2.3428,-1.4699,1.93,128.6399,52.7,124.78,51.029647,13.731684,131.32,4.15,2.64,3.2,3.06,3,7,5,30.86
140214,74853300,1392364133232.985,-0.1961,-0.7354,-9.6687,0.8,1.6571,2.5714,-1.4499,1.93,128.5799,52.7,124.78,51.029647,13.731684,131.32,4.15,2.64,3.2,3.06,3,7,5,30.86
140214,74853300,1392364133265.903,-0.2255,-0.5589,-10.2473,0.6857,2.4,2.4571,-1.4499,1.95,128.52,52.7,124.78,51.029639,13.731701,131.32,4.15,2.64,3.2,3.05,3,7,5,30.86
140214,74853400,1392364133325.0378,-0.3922,-0.1176,-9.2569,0.4571,1.8857,2.6857,-1.4399,1.96,128.46,52.68,124.52,51.029639,13.731701,131.32,4.15,2.64,3.2,3.05,3,7,5,30.86
140214,74853400,1392364133349.476,-1.3042,-0.4118,-9.9237,1.1428,0.6285,2.8571,-1.4399,1.99,128.41,52.68,124.52,51.029639,13.731701,131.32,4.15,2.64,3.2,3.05,3,7,5,30.86
140214,74853400,1392364133370.265,-1.1865,-0.5295,-10.7474,0.6285,0.0571,2.7428,-1.43,2.0099,128.35,52.68,124.52,51.029639,13.731701,131.32,4.15,2.64,3.2,3.05,3,7,5,30.86
140214,74853400,1392364133396.556,-0.8335,-0.5981,-9.6981,0.9714,0.8,2.8,-1.43,2.05,128.29,52.68,124.52,51.029639,13.731701,131.32,4.15,2.64,3.2,3.05,3,7,5,30.86
140214,74853400,1392364133445.165,-0.5785,-1.0982,-8.9921,2.0571,1.6571,2.8,-1.4399,2.1,128.23,52.68,124.52,51.029632,13.731718,131.32,4.15,2.64,3.19,3.05,3,7,5,30.86
140214,74853500,1392364133477.45,-0.2451,-1.4218,-9.6393,1.6571,1.9428,2.9142,-1.43,2.14,128.16,52.66,124.24,51.029632,13.731718,131.32,4.15,2.64,3.19,3.05,3,7,5,30.86
140214,74853500,1392364133509.372,-0.3039,-1.4905,-9.1294,2.2857,2.1714,3.2571,-1.43,2.18,128.09,52.66,124.24,51.029632,13.731718,131.32,4.15,2.64,3.19,3.05,3,7,5,30.86
140214,74853500,1392364133533.313,0.1765,-1.4512,-9.5903,2.8,2.4,3.1428,-1.4399,2.23,128.02,52.66,124.24,51.029632,13.731718,131.32,4.15,2.64,3.19,3.05,3,7,5,30.86
140214,74853500,1392364133580.828,-0.3432,-1.363,-8.7764,2.8,2.3428,3.2,-1.4399,2.2799,127.94,52.66,124.24,51.029632,13.731718,131.32,4.15,2.64,3.19,3.05,3,7,5,30.86
140214,74853500,1392364133626.6838,0.2451,-0.8923,-9.855,2.6285,2.2857,3.3714,-1.4199,2.31,127.86,52.66,124.24,51.029624,13.731735,131.32,4.14,2.64,3.19,3.04,3,7,5,30.87
140214,74853600,1392364133662.683,-0.2255,-1.4022,-10.1982,3.2,1.0857,3.6571,-1.4199,2.36,127.78,52.28,124.03,51.029624,13.731735,131.32,4.14,2.64,3.19,3.04,3,7,5,30.87
140214,74853600,1392364133693.302,-0.402,-1.2943,-9.4628,2.4,1.4285,3.4285,-1.4199,2.41,127.69,52.28,124.03,51.029624,13.731735,131.32,4.14,2.64,3.19,3.04,3,7,5,30.87
140214,74853600,1392364133729.373,0.8433,-0.3432,-9.6197,2.3428,3.4857,3.6571,-1.4099,2.43,127.6,52.28,124.03,51.029624,13.731735,131.32,4.14,2.64,3.19,3.04,3,7,5,30.87
140214,74853600,1392364133749.4978,0.5393,-0.8629,-9.4922,2.3428,3.2,3.8857,-1.4,2.48,127.51,52.28,124.03,51.029624,13.731735,131.32,4.14,2.64,3.19,3.04,3,7,5,30.87
140214,74853600,1392364133806.13,0.4412,-1.3238,-9.855,2.5714,1.8285,3.9428,-1.3899,2.52,127.41,52.28,124.03,51.029617,13.731753,131.32,4.15,2.64,3.2,3.04,3,7,5,30.87
140214,74853700,1392364133844.858,-0.049,-1.4611,-9.7962,1.9428,1.8285,3.9428,-1.4,2.57,127.32,52.44,123.57,51.029617,13.731753,131.35,4.15,2.64,3.2,3.04,3,7,5,30.87
140214,74853700,1392364133855.7078,0.4216,-0.9806,-10.0413,1.4857,0.9714,4.0,-1.3899,2.6,127.22,52.44,123.57,51.029617,13.731753,131.35,4.15,2.64,3.2,3.04,3,7,5,30.87
140214,74853700,1392364133881.8828,-0.6766,-1.1669,-10.463,1.1428,0.2285,4.0571,-1.3899,2.64,127.13,52.44,123.57,51.029617,13.731753,131.35,4.15,2.64,3.2,3.04,3,7,5,30.87
140214,74853700,1392364133912.8,-0.7746,-1.0786,-10.3257,1.6,0.1714,4.1714,-1.4,2.69,127.03,52.44,123.57,51.029617,13.731753,131.35,4.15,2.64,3.2,3.04,3,7,5,30.87
140214,74853700,1392364133945.99,-1.01,-1.1767,-10.8062,1.2571,0.6285,4.2285,-1.4099,2.74,126.93,52.44,123.57,51.02961,13.73177,131.35,4.14,2.64,3.19,3.03,3,7,5,30.87
140214,74853800,1392364133979.599,-0.5981,-0.9904,-10.0119,0.9142,0.6285,4.2857,-1.4,2.77,126.83,52.39,123.06,51.02961,13.73177,131.33,4.14,2.64,3.19,3.03,3,7,5,30.87
140214,74853800,1392364134012.1309,-0.3922,-0.9413,-9.9629,0.1714,0.5714,4.3428,-1.4199,2.83,126.73,52.39,123.06,51.02961,13.73177,131.33,4.14,2.64,3.19,3.03,3,7,5,30.87
140214,74853800,1392364134049.4932,-0.5981,-1.0786,-9.6785,0.4,1.6,4.2857,-1.43,2.87,126.63,52.39,123.06,51.02961,13.73177,131.33,4.14,2.64,3.19,3.03,3,7,5,30.87
140214,74853800,1392364134080.27,-0.8923,-1.4022,-10.1982,0.2857,1.7714,4.4571,-1.43,2.9,126.52,52.39,123.06,51.02961,13.73177,131.33,4.14,2.64,3.19,3.03,3,7,5,30.87
140214,74853800,1392364134125.129,-0.657,-1.0982,-9.4138,0.0,2.5142,4.5142,-1.43,2.94,126.42,52.39,123.06,51.029603,13.731787,131.33,4.15,2.64,3.2,3.03,3,7,5,30.87
140214,74853900,1392364134150.282,-1.2257,-1.3042,-10.5022,-0.6857,-0.0571,4.7428,-1.4499,2.98,126.32,52.34,122.76,51.029603,13.731787,131.36,4.15,2.64,3.2,3.03,3,7,5,30.87
140214,74853900,1392364134176.759,-1.01,-1.1276,-9.9825,-0.4,0.4,4.8,-1.4499,3.0,126.21,52.34,122.76,51.029603,13.731787,131.36,4.15,2.64,3.2,3.03,3,7,5,30.87
140214,74853900,1392364134206.404,-1.1178,-1.5101,-9.7766,0.2857,0.6857,4.8571,-1.4499,3.02,126.1,52.34,122.76,51.029603,13.731787,131.36,4.15,2.64,3.2,3.03,3,7,5,30.87
140214,74853900,1392364134247.174,-0.5589,-1.3924,-9.453,1.2571,0.9714,4.4571,-1.4699,3.06,126.0,52.34,122.76,51.029603,13.731787,131.36,4.15,2.64,3.2,3.03,3,7,5,30.87
140214,74853900,1392364134269.8892,-0.0882,-1.8239,-9.1686,0.6857,1.6571,4.5714,-1.4699,3.08,125.89,52.34,122.76,51.029596,13.731804,131.36,4.14,2.64,3.19,3.02,3,7,5,30.87
140214,74854000,1392364134325.165,-0.1863,-1.5787,-8.9333,0.8,2.0,4.5714,-1.49,3.12,125.78,52.31,122.78,51.029596,13.731804,131.38,4.14,2.64,3.19,3.02,3,7,5,30.87
140214,74854000,1392364134356.303,0.5001,-1.7258,-9.6393,0.9142,2.0571,4.7428,-1.49,3.14,125.67,52.31,122.78,51.029596,13.731804,131.38,4.14,2.64,3.19,3.02,3,7,5,30.87
140214,74854000,1392364134374.059,-0.0294,-0.8531,-10.6003,1.3142,1.2571,4.6857,-1.53,3.19,125.55,52.31,122.78,51.029596,13.731804,131.38,4.14,2.64,3.19,3.02,3,7,5,30.87
140214,74854000,1392364134416.595,-0.1274,-0.9904,-9.1098,1.7142,0.9714,4.6285,-1.53,3.22,125.44,52.31,122.78,51.029596,13.731804,131.38,4.14,2.64,3.19,3.02,3,7,5,30.87
140214,74854000,1392364134457.011,-0.3922,-1.5493,-9.7766,1.4285,1.0857,4.4571,-1.56,3.28,125.32,52.31,122.78,51.029589,13.731821,131.38,4.15,2.64,3.2,3.02,3,7,5,30.87
140214,74854100,1392364134485.427,0.1863,-1.2943,-9.4334,1.0285,1.5428,4.8,-1.56,3.31,125.2,52.3,122.81,51.029589,13.731821,131.4,4.15,2.64,3.2,3.02,3,7,5,30.87
140214,74854100,1392364134513.327,0.2353,-1.4218,-10.3551,1.1428,2.1142,4.8,-1.56,3.34,125.09,52.3,122.81,51.029589,13.731821,131.4,4.15,2.64,3.2,3.02,3,7,5,30.87
140214,74854100,1392364134544.92,0.8727,-1.4512,-9.9335,2.3428,3.0857,4.9142,-1.56,3.36,124.96,52.3,122.81,51.029589,13.731821,131.4,4.15,2.64,3.2,3.02,3,7,5,30.87
140214,74854100,1392364134566.498,0.5197,-1.8533,-9.8452,2.2285,2.1142,5.1428,-1.58,3.41,124.84,52.3,122.81,51.029589,13.731821,131.4,4.15,2.64,3.2,3.02,3,7,5,30.87
140214,74854100,1392364134617.146,0.353,-1.314,-9.3255,1.3714,1.1428,5.0857,-1.59,3.45,124.72,52.3,122.81,51.029582,13.731839,131.4,4.14,2.64,3.2,3.02,3,7,5,30.87
140214,74854200,1392364134646.741,-0.4804,-1.1473,-10.414,1.3142,0.4571,5.2571,-1.62,3.51,124.59,52.32,122.82,51.029582,13.731839,131.43,4.14,2.64,3.2,3.02,3,7,5,30.87
140214,74854200,1392364134677.393,-0.7746,-1.0296,-11.2867,1.0285,-0.2857,5.2,-1.6399,3.56,124.47,52.32,122.82,51.029582,13.731839,131.43,4.14,2.64,3.2,3.02,3,7,5,30.87
140214,74854200,1392364134706.83,-0.9413,-1.1473,-10.4434,1.4857,0.3428,5.4285,-1.6399,3.61,124.34,52.32,122.82,51.029582,13.731839,131.43,4.14,2.64,3.2,3.02,3,7,5,30.87
140214,74854200,1392364134736.9731,-0.5393,-0.8237,-10.4826,0.8,0.7428,5.4285,-1.6399,3.65,124.21,52.32,122.82,51.029582,13.731839,131.43,4.14,2.64,3.2,3.02,3,7,5,30.87
140214,74854200,1392364134757.223,-0.8237,-1.5101,-9.1882,0.5714,0.4571,5.3714,-1.65,3.7,124.09,52.32,122.82,51.029575,13.731856,131.43,4.14,2.64,3.19,3.01,3,7,5,30.87
140214,74854300,1392364134805.094,-0.6471,-1.1963,-9.806,0.2857,1.7714,5.5428,-1.68,3.77,123.96,52.29,122.68,51.029575,13.731856,131.45,4.14,2.64,3.19,3.01,3,7,5,30.87
140214,74854300,1392364134846.401,-0.5883,-1.0296,-9.8648,0.6285,1.7142,5.6,-1.6999,3.82,123.83,52.29,122.68,51.029575,13.731856,131.45,4.14,2.64,3.19,3.01,3,7,5,30.87
140214,74854300,1392364134875.456,-0.8433,-1.3434,-10.3551,0.5142,1.6,5.4857,-1.7199,3.89,123.71,52.29,122.68,51.029575,13.731856,131.45,4.14,2.64,3.19,3.01,3,7,5,30.87
140214,74854300,1392364134907.263,-0.4118,-1.4709,-9.3549,0.5142,1.8285,5.4285,-1.7299,3.93,123.58,52.29,122.68,51.029575,13.731856,131.45,4.14,2.64,3.19,3.01,3,7,5,30.87
140214,74854300,1392364134932.954,-1.6081,-1.7356,-10.159,0.4,0.2857,5.4285,-1.74,3.98,123.46,52.29,122.68,51.029568,13.731873,131.45,4.15,2.64,3.2,3.01,3,7,5,30.87
140214,74854400,1392364134974.715,-1.8729,-1.4218,-10.6493,0.0,-0.1714,5.3714,-1.74,4.0199,123.33,52.38,122.43,51.029568,13.731873,131.48,4.15,2.64,3.2,3.01,3,7,5,30.87
140214,74854400,1392364135009.363,-1.3238,-1.716,-9.7276,0.1142,0.3428,5.3714,-1.7299,4.04,123.21,52.38,122.43,51.029568,13.731873,131.48,4.15,2.64,3.2,3.01,3,7,5,30.87
140214,74854400,1392364135029.629,-0.9217,-1.01,-9.198,0.5142,2.0,5.5428,-1.71,4.04,123.08,52.38,122.43,51.029568,13.731873,131.48,4.15,2.64,3.2,3.01,3,7,5,30.87
140214,74854400,1392364135065.1292,0.1667,-1.6474,-8.5999,1.0285,2.3428,5.2571,-1.6999,4.0599,122.95,52.38,122.43,51.029568,13.731873,131.48,4.15,2.64,3.2,3.01,3,7,5,30.87
140214,74854400,1392364135127.255,-0.1863,-1.9023,-9.551,1.2,2.3428,5.4285,-1.71,4.1,122.82,52.38,122.43,51.029562,13.731891,131.48,4.14,2.64,3.2,3.01,3,7,5,30.87
140214,74854500,1392364135149.614,0.1961,-1.412,-8.8646,1.2571,2.6857,5.3142,-1.68,4.11,122.69,52.68,122.18,51.029562,13.731891,131.52,4.14,2.64,3.2,3.01,3,7,5,30.87
140214,74854500,1392364135185.923,0.0686,-1.8239,-9.0215,1.5428,2.8571,5.4285,-1.68,4.14,122.56,52.68,122.18,51.029562,13.731891,131.52,4.14,2.64,3.2,3.01,3,7,5,30.87
140214,74854500,1392364135212.84,0.4216,-1.8043,-9.9531,1.7142,2.0571,5.2,-1.6599,4.14,122.43,52.68,122.18,51.029562,13.731891,131.52,4.14,2.64,3.2,3.01,3,7,5,30.87
140214,74854500,1392364135266.264,-0.7648,-1.9317,-10.0119,0.8571,0.2857,5.2,-1.65,4.15,122.31,52.68,122.18,51.029562,13.731891,131.52,4.14,2.64,3.2,3.01,3,7,5,30.87
140214,74854500,1392364135309.698,0.1667,-1.2845,-9.1294,0.4571,2.1714,5.2,-1.6399,4.15,122.17,52.68,122.18,51.029555,13.731908,131.52,4.15,2.64,3.2,3.01,3,7,5,30.87
140214,74854600,1392364135333.817,0.2451,-1.4807,-10.4826,0.5142,0.9714,5.3142,-1.6299,4.15,122.04,52.71,121.86,51.029555,13.731908,131.55,4.15,2.64,3.2,3.01,3,7,5,30.87
140214,74854600,1392364135384.9941,1.01,-1.6179,-9.2372,0.9142,3.7714,5.2571,-1.62,4.15,121.91,52.71,121.86,51.029555,13.731908,131.55,4.15,2.64,3.2,3.01,3,7,5,30.87
140214,74854600,1392364135409.88,0.8727,-1.2845,-9.1294,1.2571,2.5142,5.3142,-1.59,4.14,121.78,52.71,121.86,51.029555,13.731908,131.55,4.15,2.64,3.2,3.01,3,7,5,30.87
140214,74854600,1392364135432.948,0.0098,-1.4512,-9.7276,0.8571,1.8857,5.1428,-1.6299,4.19,121.65,52.71,121.86,51.029555,13.731908,131.55,4.15,2.64,3.2,3.01,3,7,5,30.87
140214,74854600,1392364135478.38,0.5981,-1.7945,-10.4336,0.7428,0.7428,5.3142,-1.6299,4.2,121.53,52.71,121.86,51.029548,13.731926,131.55,2.57,2.38,0.95,3.01,3,7,5,30.87
140214,74854700,1392364135517.843,-0.9904,-1.1375,-10.2767,0.0571,-0.3428,5.4857,-1.6699,4.25,121.4,52.74,121.71,51.029548,13.731926,131.58,2.57,2.38,0.95,3.01,3,7,5,30.87
140214,74854700,1392364135536.315,-0.1863,-1.2845,-10.463,0.5142,0.3428,5.3142,-1.68,4.28,121.27,52.74,121.71,51.029548,13.731926,131.58,2.57,2.38,0.95,3.01,3,7,5,30.87
140214,74854700,1392364135566.545,-1.4218,-0.9511,-10.9043,0.3428,-0.5714,5.2571,-1.7299,4.3099,121.14,52.74,121.71,51.029548,13.731926,131.58,2.57,2.38,0.95,3.01,3,7,5,30.87
140214,74854700,1392364135599.032,-0.8335,-1.0492,-10.6591,-0.1714,-0.2857,5.3142,-1.74,4.34,121.01,52.74,121.71,51.029548,13.731926,131.58,2.57,2.38,0.95,3.01,3,7,5,30.87
140214,74854700,1392364135629.718,-0.5295,-1.01,-10.4042,0.4571,0.7428,5.3142,-1.78,4.39,120.88,52.74,121.71,51.029542,13.731943,131.58,2.56,2.38,0.95,3.02,3,7,5,30.87
140214,74854800,1392364135665.492,-0.3922,-0.9413,-10.6395,-0.0571,1.3142,5.3714,-1.81,4.44,120.75,52.79,121.38,51.029542,13.731943,131.61,2.56,2.38,0.95,3.02,3,7,5,30.87
140214,74854800,1392364135699.7659,-0.5785,-1.3826,-9.2961,0.6285,1.0285,5.2571,-1.84,4.5,120.63,52.79,121.38,51.029542,13.731943,131.61,2.56,2.38,0.95,3.02,3,7,5,30.87
140214,74854800,1392364135716.509,-1.01,-1.5787,-9.4726,0.6857,0.9714,5.5428,-1.8899,4.57,120.5,52.79,121.38,51.029542,13.731943,131.61,2.56,2.38,0.95,3.02,3,7,5,30.87
140214,74854800,1392364135749.764,-1.3924,-1.5199,-10.4826,0.3428,-0.1714,5.6,-1.9099,4.61,120.37,52.79,121.38,51.029542,13.731943,131.61,2.56,2.38,0.95,3.02,3,7,5,30.87
140214,74854800,1392364135787.359,-0.7942,-1.2551,-10.3355,0.6857,0.6285,5.4285,-1.93,4.66,120.24,52.79,121.38,51.029535,13.731961,131.61,4.14,2.64,3.19,3.02,3,7,5,30.87
140214,74854900,1392364135829.638,-0.8825,-1.2257,-9.3157,0.6285,0.9714,5.5428,-1.9199,4.69,120.12,52.86,120.97,51.029535,13.731961,131.63,4.14,2.64,3.19,3.02,3,7,5,30.87
140214,74854900,1392364135849.7478,-1.5199,-1.3238,-9.4628,1.6,0.2285,5.4857,-1.9099,4.7,119.98,52.86,120.97,51.029535,13.731961,131.63,4.14,2.64,3.19,3.02,3,7,5,30.87
140214,74854900,1392364135869.748,-0.5883,-1.5689,-9.6981,0.9142,1.8285,5.2571,-1.8799,4.72,119.85,52.86,120.97,51.029535,13.731961,131.63,4.14,2.64,3.19,3.02,3,7,5,30.87
140214,74854900,1392364135904.385,-0.6766,-1.5199,-9.855,0.8571,1.2571,5.3714,-1.86,4.74,119.73,52.86,120.97,51.029535,13.731961,131.63,4.14,2.64,3.19,3.02,3,7,5,30.87
140214,74854900,1392364135945.621,-0.098,-1.2551,-8.9038,1.3142,2.4571,5.5428,-1.84,4.7699,119.59,52.86,120.97,51.029529,13.731979,131.63,4.15,2.64,3.2,3.02,3,7,5,30.87
140214,74855000,1392364135973.0361,-0.147,-1.8533,-8.5999,1.7714,3.8857,5.4285,-1.8199,4.79,119.46,52.88,120.26,51.029529,13.731979,131.66,4.15,2.64,3.2,3.02,3,7,5,30.87
140214,74855000,1392364136005.326,-0.1667,-1.9612,-9.502,2.1142,2.7428,5.6,-1.78,4.8,119.33,52.88,120.26,51.029529,13.731979,131.66,4.15,2.64,3.2,3.02,3,7,5,30.87
140214,74855000,1392364136026.8782,0.0588,-1.716,-9.5412,1.8857,2.5714,5.3714,-1.7599,4.83,119.19,52.88,120.26,51.029529,13.731979,131.66,4.15,2.64,3.2,3.02,3,7,5,30.87
140214,74855000,1392364136054.601,-0.0294,-1.8043,-9.3745,1.8285,1.6,5.4285,-1.7299,4.85,119.06,52.88,120.26,51.029529,13.731979,131.66,4.15,2.64,3.2,3.02,3,7,5,30.87
140214,74855000,1392364136077.008,0.0686,-1.7945,-9.0215,2.2857,1.8857,5.3714,-1.7199,4.89,118.93,52.88,120.26,51.029523,13.731997,131.66,4.15,2.64,3.2,3.01,3,7,5,30.87
140214,74855100,1392364136125.118,0.3726,-1.2845,-9.3843,2.4,1.9428,5.3142,-1.6999,4.9,118.8,52.82,119.48,51.029523,13.731997,131.69,4.15,2.64,3.2,3.01,3,7,5,30.87
140214,74855100,1392364136156.269,0.0784,-1.5003,-9.8648,2.5714,2.4571,5.3142,-1.71,4.94,118.66,52.82,119.48,51.029523,13.731997,131.69,4.15,2.64,3.2,3.01,3,7,5,30.87
140214,74855100,1392364136176.208,0.353,-1.3826,-9.855,2.2857,2.9714,5.2571,-1.6999,4.97,118.53,52.82,119.48,51.029523,13.731997,131.69,4.15,2.64,3.2,3.01,3,7,5,30.87
140214,74855100,1392364136197.384,0.9217,-1.2453,-9.2078,2.1142,3.6,5.2,-1.6699,4.99,118.4,52.82,119.48,51.029523,13.731997,131.69,4.15,2.64,3.2,3.01,3,7,5,30.87
140214,74855100,1392364136227.285,0.6177,-1.4905,-9.2274,2.0571,2.8571,5.2571,-1.6399,5.01,118.27,52.82,119.48,51.029518,13.732015,131.69,4.14,2.64,3.19,3.01,3,7,5,30.87
140214,74855200,1392364136270.586,0.3726,-1.7945,-10.1492,1.5428,2.1142,5.2571,-1.62,5.03,118.15,52.8,118.6,51.029518,13.732015,131.72,4.14,2.64,3.19,3.01,3,7,5,30.87
140214,74855200,1392364136305.6272,-0.4804,-1.9415,-9.9237,1.1428,1.3714,5.3142,-1.5999,5.03,118.02,52.8,118.6,51.029518,13.732015,131.72,4.14,2.64,3.19,3.01,3,7,5,30.87
140214,74855200,1392364136346.6,-0.8433,-0.8335,-10.8552,0.8,0.8571,5.2,-1.59,5.03,117.88,52.8,118.6,51.029518,13.732015,131.72,4.14,2.64,3.19,3.01,3,7,5,30.87
140214,74855200,1392364136365.274,-0.6275,-1.3238,-10.1198,0.1714,0.5142,5.3142,-1.5399,5.03,117.75,52.8,118.6,51.029518,13.732015,131.72,4.14,2.64,3.19,3.01,3,7,5,30.87
140214,74855200,1392364136395.742,-0.8139,-1.1375,-9.9825,0.6285,0.9714,5.2,-1.53,5.03,117.62,52.8,118.6,51.029512,13.732034,131.72,4.14,2.64,3.19,3.01,3,7,5,30.87
140214,74855300,1392364136443.0,-0.8825,-1.4611,-10.6493,0.4,0.9142,5.3714,-1.5,5.0199,117.49,52.79,118.05,51.029512,13.732034,131.76,4.14,2.64,3.19,3.01,3,7,5,30.87
140214,74855300,1392364136505.321,-0.4804,-1.2649,-10.2669,0.1142,2.1142,5.3714,-1.49,5.03,117.36,52.79,118.05,51.029512,13.732034,131.76,4.14,2.64,3.19,3.01,3,7,5,30.87
140214,74855300,1392364136546.1719,-0.2451,-1.5101,-9.3451,0.0571,2.2857,5.4857,-1.46,5.03,117.23,52.79,118.05,51.029512,13.732034,131.76,4.14,2.64,3.19,3.01,3,7,5,30.87
140214,74855300,1392364136576.202,-0.5785,-1.7356,-9.7472,0.1714,1.9428,5.7142,-1.4499,5.04,117.1,52.79,118.05,51.029512,13.732034,131.76,4.14,2.64,3.19,3.01,3,7,5,30.87
140214,74855300,1392364136597.93,-0.6373,-1.4807,-9.8844,-0.1714,1.6571,5.5428,-1.4399,5.04,116.97,52.79,118.05,51.029507,13.732052,131.76,4.14,2.64,3.19,3.01,3,7,5,30.87
140214,74855400,1392364136631.5652,-1.0198,-1.4512,-10.0904,-0.4,1.0857,5.5428,-1.43,5.05,116.83,52.79,117.43,51.029507,13.732052,131.8,4.14,2.64,3.19,3.01,3,7,5,30.87
140214,74855400,1392364136653.1191,-1.1276,-1.3336,-10.2865,-0.8571,0.2285,5.5428,-1.4099,5.04,116.7,52.79,117.43,51.029507,13.732052,131.8,4.14,2.64,3.19,3.01,3,7,5,30.87
140214,74855400,1392364136685.1821,-1.971,-1.3042,-10.1394,-1.0285,0.2285,5.6,-1.37,5.0199,116.57,52.79,117.43,51.029507,13.732052,131.8,4.14,2.64,3.19,3.01,3,7,5,30.87
140214,74855400,1392364136710.379,-0.9511,-1.7748,-9.9825,0.1142,0.9714,5.6,-1.34,5.0,116.44,52.79,117.43,51.029507,13.732052,131.8,4.14,2.64,3.19,3.01,3,7,5,30.87
140214,74855400,1392364136736.277,-0.0686,-1.7062,-9.1882,-0.5142,2.9142,5.6571,-1.3,4.97,116.3,52.79,117.43,51.029501,13.732071,131.8,4.15,2.64,3.2,3.01,3,7,5,30.87
140214,74855500,1392364136770.608,0.1765,-1.1178,-9.2078,0.4571,1.2,5.3714,-1.3,4.96,116.17,53.16,116.34,51.029501,13.732071,131.83,4.15,2.64,3.2,3.01,3,7,5,30.87
140214,74855500,1392364136794.248,-0.4216,-1.5885,-9.7864,0.8571,1.0857,5.4285,-1.28,4.96,116.04,53.16,116.34,51.029501,13.732071,131.83,4.15,2.64,3.2,3.01,3,7,5,30.87
140214,74855500,1392364136816.8262,0.1274,-1.2649,-9.4824,1.0857,2.3428,5.3714,-1.27,4.97,115.9,53.16,116.34,51.029501,13.732071,131.83,4.15,2.64,3.2,3.01,3,7,5,30.87
140214,74855500,1392364136856.956,0.3432,-1.8827,-9.4138,1.3142,2.4,5.3714,-1.2599,4.98,115.77,53.16,116.34,51.029501,13.732071,131.83,4.15,2.64,3.2,3.01,3,7,5,30.87
140214,74855500,1392364136876.27,0.1176,-1.716,-9.2569,1.4857,2.3428,5.3142,-1.2899,5.03,115.64,53.16,116.34,51.029497,13.73209,131.83,4.14,2.64,3.19,3.01,3,7,5,30.89
140214,74855600,1392364136915.521,-0.2059,-1.765,-9.2274,1.8285,0.5714,5.2,-1.3,5.07,115.51,53.15,115.05,51.029497,13.73209,131.86,4.14,2.64,3.19,3.01,3,7,5,30.89
140214,74855600,1392364136945.169,-0.2745,-1.5395,-10.4826,1.2,0.6857,5.2,-1.34,5.14,115.38,53.15,115.05,51.029497,13.73209,131.86,4.14,2.64,3.19,3.01,3,7,5,30.89
140214,74855600,1392364136956.737,-0.4608,-1.7945,-9.9629,2.4,0.6857,5.2571,-1.3199,5.13,115.24,53.15,115.05,51.029497,13.73209,131.86,4.14,2.64,3.19,3.01,3,7,5,30.89
140214,74855600,1392364136986.613,-0.3137,-0.9707,-9.8746,1.9428,1.6571,5.0857,-1.3499,5.18,115.11,53.15,115.05,51.029497,13.73209,131.86,4.14,2.64,3.19,3.01,3,7,5,30.89
140214,74855600,1392364137046.0342,0.5687,-1.0198,-9.7276,2.1142,2.0571,5.0857,-1.3199,5.18,114.98,53.15,115.05,51.029491,13.732109,131.86,2.56,2.38,0.95,3.01,3,7,5,30.89
140214,74855700,1392364137069.849,0.2549,-1.059,-9.149,1.9428,2.9142,5.1428,-1.33,5.22,114.85,53.19,114.65,51.029491,13.732109,131.9,2.56,2.38,0.95,3.01,3,7,5,30.89
140214,74855700,1392364137113.41,0.6668,-1.7945,-9.3647,2.9714,2.8571,5.2,-1.28,5.22,114.71,53.19,114.65,51.029491,13.732109,131.9,2.56,2.38,0.95,3.01,3,7,5,30.89
140214,74855700,1392364137133.1191,0.4804,-1.971,-9.6589,2.9142,3.5428,5.2571,-1.2299,5.23,114.58,53.19,114.65,51.029491,13.732109,131.9,2.56,2.38,0.95,3.01,3,7,5,30.89
140214,74855700,1392364137165.928,1.108,-1.5101,-9.1686,2.5142,3.2,5.3142,-1.1699,5.21,114.44,53.19,114.65,51.029491,13.732109,131.9,2.56,2.38,0.95,3.01,3,7,5,30.89
140214,74855700,1392364137209.2632,-0.0882,-1.4709,-9.8943,2.3428,2.1714,5.3714,-1.1299,5.21,114.3,53.19,114.65,51.029487,13.732129,131.9,2.56,2.38,0.95,3.01,3,7,5,30.89
140214,74855800,1392364137247.2551,-0.3137,-0.9511,-10.4238,2.0571,2.0571,5.3142,-1.0999,5.21,114.17,53.27,113.79,51.029487,13.732129,131.94,2.56,2.38,0.95,3.01,3,7,5,30.89
140214,74855800,1392364137285.182,-0.657,-0.7452,-10.0021,1.7142,0.9714,5.2571,-1.03,5.18,114.03,53.27,113.79,51.029487,13.732129,131.94,2.56,2.38,0.95,3.01,3,7,5,30.89
140214,74855800,1392364137305.1929,-0.4706,-1.2159,-10.6003,1.0285,0.8571,5.3714,-0.9699,5.18,113.89,53.27,113.79,51.029487,13.732129,131.94,2.56,2.38,0.95,3.01,3,7,5,30.89
140214,74855800,1392364137329.686,-0.5981,-1.1963,-10.3355,1.1428,0.0571,5.3714,-0.9199,5.16,113.76,53.27,113.79,51.029487,13.732129,131.94,2.56,2.38,0.95,3.01,3,7,5,30.89
140214,74855800,1392364137354.5798,-0.9315,-1.2257,-10.0806,0.8,0.2285,5.4857,-0.9099,5.2,113.63,53.27,113.79,51.029483,13.732148,131.94,2.56,2.38,0.95,3.01,3,7,5,30.89
140214,74855900,1392364137389.076,-0.4118,-0.9217,-10.0512,0.6285,1.7714,5.2571,-0.8899,5.21,113.49,53.23,112.84,51.029483,13.732148,131.98,2.56,2.38,0.95,3.01,3,7,5,30.89
140214,74855900,1392364137416.772,-0.3726,-1.4512,-10.3551,0.5142,1.6571,5.2,-0.8899,5.24,113.36,53.23,112.84,51.029483,13.732148,131.98,2.56,2.38,0.95,3.01,3,7,5,30.89
140214,74855900,1392364137436.2349,-0.2255,-1.1963,-10.1002,0.0571,1.9428,5.1428,-0.8799,5.25,113.24,53.23,112.84,51.029483,13.732148,131.98,2.56,2.38,0.95,3.01,3,7,5,30.89
140214,74855900,1392364137456.269,-0.3628,-0.9609,-9.9237,-0.0571,2.1714,5.0285,-0.87,5.26,113.11,53.23,112.84,51.029483,13.732148,131.98,2.56,2.38,0.95,3.01,3,7,5,30.89
140214,74855900,1392364137487.236,-0.5001,-1.314,-9.9335,0.0,0.9142,5.0285,-0.8499,5.24,112.99,53.23,112.84,51.029478,13.732167,131.98,4.15,2.64,3.2,3.01,3,7,5,30.89
140214,74856000,1392364137526.4841,-1.1178,-1.5493,-9.6883,0.0,0.6285,4.9714,-0.84,5.25,112.87,53.3,112.06,51.029478,13.732167,132.02,4.15,2.64,3.2,3.01,3,7,5,30.89
140214,74856000,1392364137550.3289,-0.3235,-1.0198,-9.9335,0.0,1.5428,4.5714,-0.8199,5.22,112.76,53.3,112.06,51.029478,13.732167,132.02,4.15,2.64,3.2,3.01,3,7,5,30.89
140214,74856000,1392364137573.147,-1.1865,-0.9609,-10.5709,-0.1714,0.0,4.4571,-0.81,5.21,112.64,53.3,112.06,51.029478,13.732167,132.02,4.15,2.64,3.2,3.01,3,7,5,30.89
140214,74856000,1392364137596.09,-0.9511,-0.5589,-10.7474,-1.2,-0.1142,4.1714,-0.78,5.17,112.53,53.3,112.06,51.029478,13.732167,132.02,4.15,2.64,3.2,3.01,3,7,5,30.89
140214,74856000,1392364137632.3801,-0.9315,-0.9119,-9.9237,-1.0857,0.3428,4.1142,-0.74,5.09,112.43,53.3,112.06,51.029475,13.732186,132.02,4.14,2.64,3.19,3.0,3,7,5,30.89
140214,74856000,1392364137673.096,-0.5589,-1.1669,-9.9237,-1.5428,0.0,3.9428,-0.71,5.03,112.33,53.25,110.81,51.029475,13.732186,132.06,4.14,2.64,3.19,3.0,3,7,5,30.89
140214,74856100,1392364137716.5588,-0.3432,-0.6471,-9.1392,-1.6571,0.3428,3.5428,-0.68,4.94,112.24,53.25,110.81,51.029475,13.732186,132.06,4.14,2.64,3.19,3.0,3,7,5,30.89
140214,74856100,1392364137736.5688,0.1274,-0.2353,-9.6785,-1.7142,1.8857,3.4285,-0.65,4.86,112.15,53.25,110.81,51.029475,13.732186,132.06,4.14,2.64,3.19,3.0,3,7,5,30.89
140214,74856100,1392364137766.53,0.1863,-0.2843,-9.7276,-1.0857,1.3142,3.1428,-0.61,4.76,112.07,53.25,110.81,51.029475,13.732186,132.06,4.14,2.64,3.19,3.0,3,7,5,30.89
140214,74856100,1392364137789.156,-0.0294,-0.4804,-9.2863,-0.5714,1.9428,2.9142,-0.5699,4.68,112.0,53.25,110.81,51.029475,13.732186,132.06,4.14,2.64,3.19,3.0,3,7,5,30.89
140214,74856100,1392364137839.636,0.1274,-0.3137,-8.9725,0.0,2.4,2.5714,-0.55,4.61,111.93,53.23,110.13,51.029471,13.732205,132.09,4.14,2.64,3.2,3.0,3,7,5,30.89
140214,74856200,1392364137856.262,0.0392,-1.0296,-9.2961,0.3428,1.4285,2.2285,-0.52,4.55,111.87,53.23,110.13,51.029471,13.732205,132.09,4.14,2.64,3.2,3.0,3,7,5,30.89
140214,74856200,1392364137886.429,0.5491,-0.2255,-9.5805,-0.7428,3.2571,2.0571,-0.52,4.48,111.81,53.23,110.13,51.029471,13.732205,132.09,4.14,2.64,3.2,3.0,3,7,5,30.89
140214,74856200,1392364137913.713,0.0392,-0.4412,-9.757,-0.2857,0.9714,1.8285,-0.4699,4.37,111.75,53.23,110.13,51.029471,13.732205,132.09,4.14,2.64,3.2,3.0,3,7,5,30.89
140214,74856200,1392364137933.253,0.1961,0.3137,-9.6687,-0.1714,1.7714,1.5428,-0.4499,4.28,111.7,53.23,110.13,51.029471,13.732205,132.09,4.14,2.64,3.2,3.0,3,7,5,30.89
140214,74856200,1392364137973.709,-0.1765,0.5589,-9.6099,0.2285,1.0285,1.3714,-0.4199,4.18,111.66,52.67,109.48,51.029468,13.732225,132.13,4.15,2.64,3.2,2.99,3,7,5,30.89
140214,74856300,1392364138005.146,0.098,0.9217,-10.4434,-0.1714,0.6857,1.0857,-0.4199,4.11,111.63,52.67,109.48,51.029468,13.732225,132.13,4.15,2.64,3.2,2.99,3,7,5,30.89
140214,74856300,1392364138033.01,0.5785,-0.3824,-9.5118,1.0857,1.8285,0.9142,-0.3499,4.01,111.6,52.67,109.48,51.029468,13.732225,132.13,4.15,2.64,3.2,2.99,3,7,5,30.89
140214,74856300,1392364138066.343,1.1571,0.6864,-9.757,1.3714,2.5142,1.0285,-0.33,3.95,111.57,52.67,109.48,51.029468,13.732225,132.13,4.15,2.64,3.2,2.99,3,7,5,30.89
140214,74856300,1392364138092.702,0.6668,0.3726,-8.8842,1.4285,2.4,0.8,-0.3,3.89,111.54,52.67,109.48,51.029468,13.732225,132.13,4.15,2.64,3.2,2.99,3,7,5,30.89
140214,74856300,1392364138133.7869,0.6864,-0.049,-9.453,1.3142,2.1142,0.6285,-0.31,3.87,111.52,52.65,108.91,51.029464,13.732245,132.1699,4.15,2.64,3.2,2.99,3,7,5,30.89
140214,74856400,1392364138164.6062,0.4804,0.6668,-9.6295,0.5714,1.8285,0.7428,-0.2899,3.82,111.5,52.65,108.91,51.029464,13.732245,132.1699,4.15,2.64,3.2,2.99,3,7,5,30.89
140214,74856400,1392364138208.562,0.1078,-0.2549,-10.2767,1.4857,2.0571,0.6285,-0.28,3.78,111.48,52.65,108.91,51.029464,13.732245,132.1699,4.15,2.64,3.2,2.99,3,7,5,30.89
140214,74856400,1392364138245.177,-0.0882,0.1176,-9.4922,1.6,1.7714,0.6285,-0.2199,3.7,111.46,52.65,108.91,51.029464,13.732245,132.1699,4.15,2.64,3.2,2.99,3,7,5,30.89
140214,74856400,1392364138272.294,-0.3726,0.5491,-10.6689,1.3714,0.6285,0.5714,-0.1699,3.64,111.45,52.65,108.91,51.029464,13.732245,132.1699,4.15,2.64,3.2,2.99,3,7,5,30.89
140214,74856400,1392364138308.734,0.2745,0.3334,-9.9237,0.8,1.7714,0.5714,-0.11,3.57,111.43,52.62,108.23,51.02946,13.732265,132.21,4.14,2.64,3.19,2.98,3,7,5,30.89
140214,74856500,1392364138345.156,-1.2649,0.1765,-11.2475,1.1428,-0.6285,0.6285,-0.0699,3.52,111.41,52.62,108.23,51.02946,13.732265,132.21,4.14,2.64,3.19,2.98,3,7,5,30.89
140214,74856500,1392364138372.238,-0.1863,0.5295,-9.9335,0.9714,1.7142,0.7428,0.0099,3.44,111.4,52.62,108.23,51.02946,13.732265,132.21,4.14,2.64,3.19,2.98,3,7,5,30.89
140214,74856500,1392364138406.719,-0.5589,0.2059,-10.767,1.2571,0.5142,0.8571,0.05,3.39,111.38,52.62,108.23,51.02946,13.732265,132.21,4.14,2.64,3.19,2.98,3,7,5,30.89
140214,74856500,1392364138433.254,-0.6668,1.0198,-10.0806,-0.1142,1.0285,0.8,0.09,3.35,111.36,52.62,108.23,51.02946,13.732265,132.21,4.14,2.64,3.19,2.98,3,7,5,30.89
140214,74856500,1392364138489.449,-0.2255,0.5785,-10.1296,0.4571,0.6285,0.7428,0.1299,3.29,111.34,52.65,108.01,51.029457,13.732285,132.24,4.14,2.64,3.19,2.98,3,7,5,30.89
140214,74856600,1392364138513.7861,-0.1372,0.0588,-9.7962,1.0857,1.9428,0.8571,0.1299,3.28,111.32,52.65,108.01,51.029457,13.732285,132.24,4.14,2.64,3.19,2.98,3,7,5,30.89
140214,74856600,1392364138533.268,-0.3824,-0.0294,-9.6883,0.6285,1.7714,0.8571,0.1599,3.25,111.3,52.65,108.01,51.029457,13.732285,132.24,4.14,2.64,3.19,2.98,3,7,5,30.89
140214,74856600,1392364138570.719,-0.1667,0.2059,-9.7668,0.0571,1.6571,0.9142,0.1599,3.23,111.28,52.65,108.01,51.029457,13.732285,132.24,4.14,2.64,3.19,2.98,3,7,5,30.89
140214,74856600,1392364138606.446,-0.2451,0.2843,-10.5513,-0.6857,1.4285,0.9714,0.1899,3.19,111.26,52.65,108.01,51.029457,13.732285,132.24,4.14,2.64,3.19,2.98,3,7,5,30.89
140214,74856600,1392364138656.477,-0.5295,0.0588,-9.9041,0.1142,2.0,0.7428,0.2199,3.14,111.24,52.65,108.01,51.029453,13.732305,132.28,2.57,2.38,0.95,2.98,3,7,5,30.89
140214,74856700,1392364138676.269,-1.0394,-0.451,-9.2471,0.4571,1.4285,0.8571,0.25,3.09,111.22,52.66,107.98,51.029453,13.732305,132.28,2.57,2.38,0.95,2.98,3,7,5,30.89
140214,74856700,1392364138705.479,-1.2257,-0.1961,-10.1394,-0.1142,1.0857,0.7428,0.27,3.05,111.21,52.66,107.98,51.029453,13.732305,132.28,2.57,2.38,0.95,2.98,3,7,5,30.89
140214,74856700,1392364138747.583,-0.1961,0.0882,-10.5611,-0.6285,1.3714,0.9142,0.34,2.95,111.19,52.66,107.98,51.029453,13.732305,132.28,2.57,2.38,0.95,2.98,3,7,5,30.89
140214,74856700,1392364138769.8801,-1.01,-0.0882,-10.5905,-0.1142,0.1142,0.6285,0.3799,2.87,111.17,52.66,107.98,51.029453,13.732305,132.28,2.57,2.38,0.95,2.98,3,7,5,30.89
140214,74856700,1392364139015.9321,-1.0198,-0.3235,-9.7962,-0.6285,0.7428,0.8,0.4199,2.79,111.15,52.66,107.98,51.029449,13.732324,132.33,2.56,2.38,0.95,2.98,3,7,5,30.89
140214,74856800,1392364139065.1208,-1.0982,0.0098,-10.1786,-0.8,-0.0571,0.6285,0.4199,2.73,111.14,52.69,107.83,51.029449,13.732324,132.33,2.56,2.38,0.95,2.98,3,7,5,30.89
140214,74856800,1392364139088.9438,-0.3137,0.3235,-10.1786,-1.3142,-0.2285,0.5714,0.43,2.66,111.12,52.69,107.83,51.029449,13.732324,132.33,2.56,2.38,0.95,2.98,3,7,5,30.89
140214,74856800,1392364139109.313,0.0294,0.0882,-9.8746,-0.9142,1.2571,0.5142,0.4799,2.56,111.11,52.69,107.83,51.029449,13.732324,132.33,2.56,2.38,0.95,2.98,3,7,5,30.89
140214,74856800,1392364139135.856,0.1274,-0.2843,-10.0315,-0.0571,1.5428,0.5714,0.52,2.47,111.09,52.69,107.83,51.029449,13.732324,132.33,2.56,2.38,0.95,2.98,3,7,5,30.89
140214,74856800,1392364139187.521,0.0098,-0.0882,-8.796,0.0,2.2285,0.5714,0.55,2.39,111.08,52.69,107.83,51.029445,13.732344,132.38,2.56,2.38,0.95,2.99,3,7,5,30.89
140214,74856900,1392364139209.869,0.1667,0.2157,-9.7276,-0.2857,1.4285,0.5142,0.56,2.33,111.07,52.75,107.74,51.029445,13.732344,132.38,2.56,2.38,0.95,2.99,3,7,5,30.89
140214,74856900,1392364139273.3381,0.755,0.2059,-9.4138,-0.2857,2.1714,0.3428,0.56,2.2799,111.06,52.75,107.74,51.029445,13.732344,132.38,2.56,2.38,0.95,2.99,3,7,5,30.89
140214,74856900,1392364139309.386,0.2451,-0.353,-9.7668,0.0571,1.9428,0.2285,0.58,2.21,111.05,52.75,107.74,51.029445,13.732344,132.38,2.56,2.38,0.95,2.99,3,7,5,30.89
140214,74856900,1392364139349.724,-0.2451,-0.2745,-10.0021,0.4571,1.5428,0.3428,0.59,2.15,111.04,52.75,107.74,51.029445,13.732344,132.38,2.56,2.38,0.95,2.99,3,7,5,30.89
140214,74856900,1392364139445.78,-0.2941,0.0196,-9.3059,0.3428,1.6571,0.3428,0.62,2.08,111.04,52.75,107.74,51.029442,13.732364,132.43,2.56,2.38,0.95,2.99,3,7,5,30.89
140214,74857000,1392364139470.095,0.8825,0.5883,-9.0019,0.5714,2.1714,0.3428,0.62,2.0299,111.03,52.84,107.64,51.029442,13.732364,132.43,2.56,2.38,0.95,2.99,3,7,5,30.89
140214,74857000,1392364139494.663,0.1765,0.0392,-10.4434,1.0285,0.5714,0.2857,0.6299,1.99,111.02,52.84,107.64,51.029442,13.732364,132.43,2.56,2.38,0.95,2.99,3,7,5,30.89
140214,74857000,1392364139527.5012,-0.2255,-0.1176,-9.2372,1.4285,0.7428,0.1714,0.6599,1.93,111.01,52.84,107.64,51.029442,13.732364,132.43,2.56,2.38,0.95,2.99,3,7,5,30.89
140214,74857000,1392364139565.257,-0.6177,0.1372,-10.2767,1.3142,0.1714,0.2857,0.6699,1.88,111.0,52.84,107.64,51.029442,13.732364,132.43,2.56,2.38,0.95,2.99,3,7,5,30.89
140214,74857000,1392364139590.505,0.0294,0.8335,-10.1884,1.4285,0.6857,0.1714,0.6699,1.84,110.99,52.84,107.64,51.029438,13.732384,132.47,4.14,2.64,3.19,2.99,3,7,5,30.89
140214,74857100,1392364139636.844,0.2059,0.2451,-9.1686,2.1714,1.0285,0.1142,0.68,1.82,110.99,53.18,107.6,51.029438,13.732384,132.47,4.14,2.64,3.19,2.99,3,7,5,30.89
140214,74857100,1392364139662.604,0.2353,0.3334,-9.9923,2.6285,1.3142,0.2285,0.6899,1.8,110.98,53.18,107.6,51.029438,13.732384,132.47,4.14,2.64,3.19,2.99,3,7,5,30.89
140214,74857100,1392364139686.4778,0.4706,-0.2549,-10.3944,2.1714,1.2,0.4571,0.74,1.75,110.97,53.18,107.6,51.029438,13.732384,132.47,4.14,2.64,3.19,2.99,3,7,5,30.89
140214,74857100,1392364139732.031,0.7354,0.3432,-9.6197,1.7142,2.7428,0.2857,0.75,1.71,110.96,53.18,107.6,51.029438,13.732384,132.47,4.14,2.64,3.19,2.99,3,7,5,30.89
140214,74857100,1392364139770.8171,0.8335,0.755,-8.8548,1.7714,2.9714,0.2857,0.7899,1.65,110.95,53.18,107.6,51.029434,13.732404,132.51,2.56,2.38,0.95,2.98,3,7,5,30.89
140214,74857200,1392364139825.236,0.6079,-0.0098,-9.9629,1.4857,1.7714,0.3428,0.8199,1.62,110.93,53.26,107.54,51.029434,13.732404,132.51,2.56,2.38,0.95,2.98,3,7,5,30.89
140214,74857200,1392364139845.113,0.9413,0.1372,-9.4922,1.8285,2.4,0.1142,0.8799,1.54,110.93,53.26,107.54,51.029434,13.732404,132.51,2.56,2.38,0.95,2.98,3,7,5,30.89
140214,74857200,1392364139866.779,0.7746,0.2941,-9.2078,1.7714,2.1142,0.2285,0.8899,1.51,110.92,53.26,107.54,51.029434,13.732404,132.51,2.56,2.38,0.95,2.98,3,7,5,30.89
140214,74857200,1392364139890.131,0.7256,0.5981,-10.3061,1.9428,2.0571,0.1714,0.93,1.46,110.91,53.26,107.54,51.029434,13.732404,132.51,2.56,2.38,0.95,2.98,3,7,5,30.89
140214,74857200,1392364139937.7861,-0.2255,0.4118,-10.6689,1.6571,0.2857,0.3428,0.93,1.45,110.9,53.26,107.54,51.029431,13.732424,132.56,4.15,2.64,3.2,2.98,3,7,5,30.89
140214,74857300,1392364139982.5088,0.1568,0.0784,-9.9727,1.2571,0.6285,0.1714,0.96,1.42,110.89,53.34,107.48,51.029431,13.732424,132.56,4.15,2.64,3.2,2.98,3,7,5,30.89
140214,74857300,1392364140024.41,-0.755,-0.098,-10.6003,1.3142,0.4,0.3428,0.93,1.41,110.88,53.34,107.48,51.029431,13.732424,132.56,4.15,2.64,3.2,2.98,3,7,5,30.89
140214,74857300,1392364140045.681,0.0686,0.3628,-10.0806,1.2,0.9714,0.2857,0.9499,1.37,110.87,53.34,107.48,51.029431,13.732424,132.56,4.15,2.64,3.2,2.98,3,7,5,30.89
140214,74857300,1392364140083.985,-0.1372,0.2745,-9.9727,1.0857,0.6285,0.3428,0.96,1.34,110.86,53.34,107.48,51.029431,13.732424,132.56,4.15,2.64,3.2,2.98,3,7,5,30.89
140214,74857300,1392364140127.389,-0.6275,0.402,-10.6984,0.9714,0.1142,0.4571,0.9099,1.36,110.85,53.34,107.48,51.029428,13.732445,132.56,4.14,2.64,3.19,2.98,3,7,5,30.89
140214,74857400,1392364140170.0571,-1.1178,-0.0784,-10.512,1.1428,-0.5142,0.3428,0.9199,1.33,110.84,53.49,107.48,51.029428,13.732445,132.6,4.14,2.64,3.19,2.98,3,7,5,30.89
140214,74857400,1392364140202.911,-0.3432,0.4314,-10.5709,1.0285,0.6857,0.3428,0.9399,1.3,110.84,53.49,107.48,51.029428,13.732445,132.6,4.14,2.64,3.19,2.98,3,7,5,30.89
140214,74857400,1392364140285.437,0.147,0.7354,-9.2667,0.6285,1.2571,0.4,0.9699,1.25,110.83,53.49,107.48,51.029428,13.732445,132.6,4.14,2.64,3.19,2.98,3,7,5,30.89
140214,74857400,1392364140327.0928,-0.6079,0.098,-10.3061,0.5714,0.7428,0.4,0.93,1.27,110.82,53.49,107.48,51.029428,13.732445,132.6,4.14,2.64,3.19,2.98,3,7,5,30.89
140214,74857400,1392364140353.993,-0.3039,0.0686,-9.7766,0.4571,1.3714,0.3428,0.9399,1.24,110.81,53.49,107.48,51.029424,13.732465,132.6,4.14,2.64,3.2,2.98,3,7,5,30.89
140214,74857500,1392364140409.593,-0.0196,0.4216,-10.159,0.2857,2.0,0.5714,0.96,1.2,110.8,53.63,107.43,51.029424,13.732465,132.65,4.14,2.64,3.2,2.98,3,7,5,30.89
140214,74857500,1392364140455.844,0.3628,0.5981,-9.9433,0.4571,2.2857,0.5714,0.99,1.15,110.79,53.63,107.43,51.029424,13.732465,132.65,4.14,2.64,3.2,2.98,3,7,5,30.89
140214,74857500,1392364140476.649,-0.5197,0.0294,-9.3059,0.2285,1.3714,0.5142,1.0,1.1299,110.78,53.63,107.43,51.029424,13.732465,132.65,4.14,2.64,3.2,2.98,3,7,5,30.89
140214,74857500,1392364140496.7861,-0.4412,0.1176,-10.1198,0.0571,1.7142,0.5142,1.0399,1.07,110.77,53.63,107.43,51.029424,13.732465,132.65,4.14,2.64,3.2,2.98,3,7,5,30.92
140214,74857500,1392364140536.96,-0.4608,0.4118,-10.2963,0.5142,1.2,0.6285,1.05,1.04,110.76,53.63,107.43,51.02942,13.732486,132.65,4.14,2.64,3.2,2.97,3,7,5,30.92
140214,74857600,1392364140571.025,-0.3039,0.657,-9.6099,0.6857,1.3142,0.6285,1.08,1.0,110.76,53.75,107.37,51.02942,13.732486,132.7,4.14,2.64,3.2,2.97,3,7,5,30.92
140214,74857600,1392364140600.7131,-0.6962,0.3235,-10.0904,1.4285,0.4571,0.4571,1.09,0.97,110.75,53.75,107.37,51.02942,13.732486,132.7,4.14,2.64,3.2,2.97,3,7,5,30.92
140214,74857600,1392364140627.355,-1.2747,0.0196,-10.6101,1.2,0.4,0.5142,1.09,0.98,110.74,53.75,107.37,51.02942,13.732486,132.7,4.14,2.64,3.2,2.97,3,7,5,30.92
140214,74857600,1392364140650.1821,-0.8531,-0.2059,-10.5415,1.0857,-0.1142,0.5142,1.11,0.96,110.73,53.75,107.37,51.02942,13.732486,132.7,4.14,2.64,3.2,2.97,3,7,5,30.92
140214,74857600,1392364140674.0688,-0.7256,0.1961,-10.0119,1.0285,0.4571,0.4571,1.11,0.95,110.73,53.75,107.37,51.029417,13.732506,132.7,2.56,2.38,0.95,2.98,3,7,5,30.92
140214,74857700,1392364140730.4749,-0.7648,0.1274,-9.6393,1.3714,-0.0571,0.4,1.12,0.93,110.72,53.85,107.35,51.029417,13.732506,132.74,2.56,2.38,0.95,2.98,3,7,5,30.92
140214,74857700,1392364140753.531,-0.7648,-0.0784,-10.9925,0.6857,0.0571,0.5142,1.0999,0.95,110.7,53.85,107.35,51.029417,13.732506,132.74,2.56,2.38,0.95,2.98,3,7,5,30.92
140214,74857700,1392364140801.331,-0.2549,-0.1078,-9.8256,0.8571,0.9142,0.4,1.11,0.91,110.7,53.85,107.35,51.029417,13.732506,132.74,2.56,2.38,0.95,2.98,3,7,5,30.92
140214,74857700,1392364140827.094,-0.6766,0.0294,-9.9825,1.1428,1.0285,0.4571,1.1299,0.88,110.69,53.85,107.35,51.029417,13.732506,132.74,2.56,2.38,0.95,2.98,3,7,5,30.92
140214,74857700,1392364140865.668,0.4804,0.4903,-9.9629,0.9142,1.8285,0.5142,1.1299,0.86,110.68,53.85,107.35,51.029413,13.732526,132.74,2.56,2.38,0.95,2.98,3,7,5,30.92
140214,74857800,1392364140896.302,-0.147,0.5883,-10.0512,0.8,1.5428,0.4,1.1399,0.84,110.67,53.92,107.34,51.029413,13.732526,132.79,2.56,2.38,0.95,2.98,3,7,5,30.92
140214,74857800,1392364140947.467,0.451,-0.0588,-9.7668,1.3714,1.4285,0.3428,1.1399,0.84,110.66,53.92,107.34,51.029413,13.732526,132.79,2.56,2.38,0.95,2.98,3,7,5,30.92
140214,74857800,1392364140970.031,-0.1765,-0.5197,-9.149,1.9428,1.3714,0.5714,1.15,0.83,110.65,53.92,107.34,51.029413,13.732526,132.79,2.56,2.38,0.95,2.98,3,7,5,30.92
140214,74857800,1392364141005.872,0.6962,-0.3922,-9.0705,1.7714,2.1142,0.5142,1.15,0.82,110.64,53.92,107.34,51.029413,13.732526,132.79,2.56,2.38,0.95,2.98,3,7,5,30.92
140214,74857800,1392364141054.786,0.3432,-0.4118,-9.6295,1.2,1.3142,0.2857,1.15,0.81,110.63,53.92,107.34,51.02941,13.732546,132.79,2.56,2.38,0.95,2.99,3,7,5,30.92
140214,74857900,1392364141092.376,0.8237,0.0588,-10.0904,1.2571,1.9428,0.4571,1.1399,0.8,110.62,53.95,107.32,51.02941,13.732546,132.85,2.56,2.38,0.95,2.99,3,7,5,30.92
140214,74857900,1392364141123.382,0.0392,-0.6177,-9.1196,1.5428,0.1714,0.4571,1.15,0.78,110.61,53.95,107.32,51.02941,13.732546,132.85,2.56,2.38,0.95,2.99,3,7,5,30.92
140214,74857900,1392364141150.136,-0.2157,-0.5687,-9.2274,1.8285,1.6571,0.4571,1.0999,0.81,110.59,53.95,107.32,51.02941,13.732546,132.85,2.56,2.38,0.95,2.99,3,7,5,30.92
140214,74857900,1392364141190.0671,0.2647,0.1274,-10.2865,1.1428,0.4571,0.4571,1.12,0.76,110.58,53.95,107.32,51.02941,13.732546,132.85,2.56,2.38,0.95,2.99,3,7,5,30.92
140214,74857900,1392364141247.2341,0.049,0.3039,-11.5417,0.6857,0.5142,0.4571,1.0999,0.75,110.57,53.95,107.32,51.029406,13.732566,132.85,2.56,2.38,0.95,2.99,3,7,5,30.92
140214,74858000,1392364141270.718,0.3039,0.0,-9.9629,1.0857,0.1714,0.2857,1.12,0.71,110.56,53.96,107.25,51.029406,13.732566,132.9,2.56,2.38,0.95,2.99,3,7,5,30.92
140214,74858000,1392364141311.0608,-0.2059,0.1667,-9.7177,1.8857,-0.5142,0.0,1.12,0.6899,110.55,53.96,107.25,51.029406,13.732566,132.9,2.56,2.38,0.95,2.99,3,7,5,30.92
140214,74858000,1392364141359.731,0.049,-0.3039,-9.8158,1.3714,-0.4,0.2285,1.1299,0.67,110.54,53.96,107.25,51.029406,13.732566,132.9,2.56,2.38,0.95,2.99,3,7,5,30.92
140214,74858000,1392364141376.599,0.6864,0.1568,-10.6003,0.8,0.9142,0.2285,1.0999,0.67,110.53,53.96,107.25,51.029406,13.732566,132.9,2.56,2.38,0.95,2.99,3,7,5,30.92
140214,74858000,1392364141419.211,0.7158,0.5393,-10.0512,0.7428,0.9142,0.2857,1.08,0.66,110.51,53.96,107.25,51.029402,13.732586,132.9,4.14,2.64,3.19,2.99,3,7,5,30.92
140214,74858100,1392364141436.78,0.4118,0.2157,-9.6883,0.8,1.1428,0.2857,1.06,0.65,110.5,53.93,107.27,51.029402,13.732586,132.95,4.14,2.64,3.19,2.99,3,7,5,30.92
140214,74858100,1392364141466.469,1.2355,0.2451,-8.9136,0.5142,2.0,0.2285,1.0699,0.59,110.49,53.93,107.27,51.029402,13.732586,132.95,4.14,2.64,3.19,2.99,3,7,5,30.92
140214,74858100,1392364141493.1792,0.6177,0.402,-10.6787,0.5714,0.8571,0.1142,1.05,0.5699,110.48,53.93,107.27,51.029402,13.732586,132.95,4.14,2.64,3.19,2.99,3,7,5,30.92
140214,74858100,1392364141526.0242,0.6177,0.2059,-10.2865,1.6,1.6,0.2285,1.05,0.54,110.47,53.93,107.27,51.029402,13.732586,132.95,4.14,2.64,3.19,2.99,3,7,5,30.92
140214,74858100,1392364141564.3972,0.4903,0.0882,-9.7864,1.6571,1.6571,0.2285,1.0999,0.48,110.46,53.93,107.27,51.029399,13.732606,132.95,4.14,2.64,3.2,2.99,3,7,5,30.92
140214,74858200,1392364141593.2058,0.5589,-0.3628,-9.3255,1.2571,1.8285,0.3428,1.1299,0.43,110.45,53.62,107.18,51.029399,13.732606,133.01,4.14,2.64,3.2,2.99,3,7,5,30.92
140214,74858200,1392364141623.189,-0.1667,-0.1372,-11.1298,0.2857,0.1714,0.4,1.12,0.4,110.44,53.62,107.18,51.029399,13.732606,133.01,4.14,2.64,3.2,2.99,3,7,5,30.92
140214,74858200,1392364141650.1802,-0.3039,0.5981,-9.8256,-0.1714,0.4,0.4571,1.1299,0.34,110.43,53.62,107.18,51.029399,13.732606,133.01,4.14,2.64,3.2,2.99,3,7,5,30.92
140214,74858200,1392364141690.2139,0.1765,0.5589,-9.9727,0.6285,0.9142,0.4,1.1399,0.3,110.42,53.62,107.18,51.029399,13.732606,133.01,4.14,2.64,3.2,2.99,3,7,5,30.92
140214,74858200,1392364141731.028,-0.1372,0.4804,-10.159,1.3714,0.1714,0.3428,1.1599,0.25,110.41,53.62,107.18,51.029396,13.732625,133.01,4.14,2.63,3.19,3.0,3,7,5,30.92
140214,74858300,1392364141766.31,-0.5981,0.5001,-10.6199,0.6285,-1.1428,0.2857,1.1699,0.22,110.4,53.57,107.17,51.029396,13.732625,133.07,4.14,2.63,3.19,3.0,3,7,5,30.92
140214,74858300,1392364141796.563,-0.7746,0.5491,-9.855,0.8,0.0,0.3428,1.1699,0.2,110.39,53.57,107.17,51.029396,13.732625,133.07,4.14,2.63,3.19,3.0,3,7,5,30.92
140214,74858300,1392364141830.363,-0.5099,0.657,-10.0512,0.8,1.0857,0.4571,1.1699,0.18,110.38,53.57,107.17,51.029396,13.732625,133.07,4.14,2.63,3.19,3.0,3,7,5,30.92
140214,74858300,1392364141850.302,-0.9217,-0.2353,-10.3944,0.5142,1.0857,0.5714,1.1999,0.15,110.37,53.57,107.17,51.029396,13.732625,133.07,4.14,2.63,3.19,3.0,3,7,5,30.92
140214,74858300,1392364141891.26,-0.402,0.402,-9.7668,-0.6285,2.0571,0.4571,1.2299,0.1,110.36,53.57,107.17,51.029392,13.732645,133.07,4.14,2.64,3.19,3.0,3,7,5,30.92
140214,74858400,1392364141950.062,0.1078,1.0198,-9.806,-0.7428,2.8,0.4,1.31,0.0,110.35,53.49,107.13,51.029392,13.732645,133.1399,4.14,2.64,3.19,3.0,3,7,5,30.92
140214,74858400,1392364141989.9248,0.1667,0.1765,-10.1198,0.0,2.2285,0.4,1.37,-0.07,110.34,53.49,107.13,51.029392,13.732645,133.1399,4.14,2.64,3.19,3.0,3,7,5,30.92
140214,74858400,1392364142016.0972,0.1961,0.3726,-8.5508,0.5714,2.3428,0.6285,1.4699,-0.18,110.33,53.49,107.13,51.029392,13.732645,133.1399,4.14,2.64,3.19,3.0,3,7,5,30.92
140214,74858400,1392364142046.273,-0.0882,0.1176,-9.9335,0.8571,2.2285,0.6285,1.53,-0.26,110.32,53.49,107.13,51.029392,13.732645,133.1399,4.14,2.64,3.19,3.0,3,7,5,30.92
140214,74858400,1392364142082.309,-0.353,0.2451,-10.3551,0.6857,2.1714,0.5714,1.58,-0.32,110.31,53.49,107.13,51.029389,13.732665,133.1399,4.15,2.64,3.2,3.0,3,7,5,30.92
140214,74858500,1392364142135.4338,0.0784,0.5883,-10.1492,1.1428,1.7714,0.5714,1.6399,-0.38,110.3,53.4,107.11,51.029389,13.732665,133.21,4.15,2.64,3.2,3.0,3,7,5,30.92
140214,74858500,1392364142197.726,-0.2059,0.7844,-7.884,1.4857,2.4571,0.5142,1.6599,-0.39,110.29,53.4,107.11,51.029389,13.732665,133.21,4.15,2.64,3.2,3.0,3,7,5,30.92
140214,74858500,1392364142210.283,-1.0884,0.0294,-11.1298,1.1428,0.0,0.6285,1.65,-0.37,110.27,53.4,107.11,51.029389,13.732665,133.21,4.15,2.64,3.2,3.0,3,7,5,30.92
140214,74858500,1392364142225.23,-1.1865,0.3824,-10.6199,0.9714,0.4,0.5142,1.68,-0.4,110.26,53.4,107.11,51.029389,13.732665,133.21,4.15,2.64,3.2,3.0,3,7,5,30.92
140214,74858500,1392364142235.989,-1.0688,0.2255,-10.159,-0.2285,0.2285,0.8571,1.6899,-0.4,110.25,53.4,107.11,51.029385,13.732685,133.21,4.14,2.64,3.2,3.0,3,7,5,30.92
140214,74858500,1392364142250.384,-0.6471,-0.0392,-10.2669,0.9142,0.2857,0.6285,1.7199,-0.43,110.24,53.28,107.07,51.029385,13.732685,133.27,4.14,2.64,3.2,3.0,3,7,5,30.92
140214,74858600,1392364142265.1948,-1.4807,0.0686,-9.6295,0.5142,-0.1142,0.5714,1.75,-0.47,110.23,53.28,107.07,51.029385,13.732685,133.27,4.14,2.64,3.2,3.0,3,7,5,30.92
140214,74858600,1392364142275.709,-0.6275,-0.6373,-10.8847,1.2571,0.7428,0.5714,1.7199,-0.46,110.22,53.28,107.07,51.029385,13.732685,133.27,4.14,2.64,3.2,3.0,3,7,5,30.92
140214,74858600,1392364142285.351,0.3039,0.4314,-10.8454,1.3142,0.1714,0.4571,1.7599,-0.51,110.21,53.28,107.07,51.029385,13.732685,133.27,4.14,2.64,3.2,3.0,3,7,5,30.92
140214,74858600,1392364142300.3489,0.3726,-0.5099,-10.2571,2.0,2.2857,0.3428,1.7599,-0.51,110.2,53.28,107.07,51.029382,13.732705,133.27,2.56,2.38,0.95,3.01,3,7,5,30.92
140214,74858600,1392364142325.244,0.5589,0.2255,-8.1978,1.8285,1.8285,0.4,1.8499,-0.59,110.19,53.22,107.04,51.029382,13.732705,133.32,2.56,2.38,0.95,3.01,3,7,5,30.92
140214,74858700,1392364142345.134,0.5393,-1.0394,-10.061,1.3142,2.1142,0.7428,1.8,-0.52,110.18,53.22,107.04,51.029382,13.732705,133.32,2.56,2.38,0.95,3.01,3,7,5,30.92
140214,74858700,1392364142354.468,0.5099,-1.1473,-9.551,2.6857,2.1714,0.4,1.83,-0.54,110.17,53.22,107.04,51.029382,13.732705,133.32,2.56,2.38,0.95,3.01,3,7,5,30.92
140214,74858700,1392364142370.255,0.0686,-0.402,-9.5118,1.1428,2.5714,0.4571,1.83,-0.55,110.16,53.22,107.04,51.029382,13.732705,133.32,2.56,2.38,0.95,3.01,3,7,5,30.92
140214,74858700,1392364142392.8171,0.7256,-0.5197,-9.9433,0.8571,1.8285,0.6285,1.8499,-0.5699,110.15,53.22,107.04,51.029378,13.732725,133.32,2.56,2.38,0.95,3.01,3,7,5,30.92
140214,74858700,1392364142406.25,0.4706,-0.0196,-10.2473,0.8571,0.9714,0.4,1.83,-0.58,110.13,53.15,106.92,51.029378,13.732725,133.38,2.56,2.38,0.95,3.01,3,7,5,30.92
140214,74858800,1392364142425.237,-0.0882,-0.1765,-9.855,1.1428,0.5714,0.2285,1.84,-0.61,110.12,53.15,106.92,51.029378,13.732725,133.38,2.56,2.38,0.95,3.01,3,7,5,30.92
140214,74858800,1392364142434.3628,0.1274,-0.098,-10.4336,1.2,0.2285,0.4,1.7899,-0.59,110.11,53.15,106.92,51.029378,13.732725,133.38,2.56,2.38,0.95,3.01,3,7,5,30.92
140214,74858800,1392364142445.2979,0.4804,0.3726,-10.1296,2.6285,0.4571,0.2285,1.77,-0.58,110.1,53.15,106.92,51.029378,13.732725,133.38,2.56,2.38,0.95,3.01,3,7,5,30.92
140214,74858800,1392364142460.298,-0.3922,-0.4903,-10.2277,1.8285,-0.4,0.2857,1.68,-0.51,110.09,53.15,106.92,51.029375,13.732744,133.38,2.56,2.38,0.95,3.01,3,7,5,30.92
140214,74858800,1392364142475.126,-0.1274,0.3334,-10.0904,1.2571,-1.0285,0.2857,1.58,-0.42,110.08,53.1,106.78,51.029375,13.732744,133.45,2.56,2.38,0.95,3.01,3,7,5,30.92
140214,74858900,1392364142485.252,0.098,0.3039,-10.1982,1.9428,-0.5714,0.1714,1.4699,-0.35,110.07,53.1,106.78,51.029375,13.732744,133.45,2.56,2.38,0.95,3.01,3,7,5,30.92
140214,74858900,1392364142497.634,0.755,-0.2255,-9.6393,1.8285,0.6857,0.3428,1.36,-0.25,110.06,53.1,106.78,51.029375,13.732744,133.45,2.56,2.38,0.95,3.01,3,7,5,30.92
140214,74858900,1392364142512.858,0.2647,-0.0392,-9.2471,1.7714,1.0857,0.3428,1.27,-0.18,110.05,53.1,106.78,51.029375,13.732744,133.45,2.56,2.38,0.95,3.01,3,7,5,30.92
140214,74858900,1392364142533.962,0.6962,-0.0882,-9.9237,1.6,2.1142,0.5142,1.1999,-0.13,110.04,53.1,106.78,51.029372,13.732764,133.45,2.56,2.38,0.95,3.01,3,7,5,30.92
140214,74858900,1392364142550.362,0.755,-0.5099,-9.7177,0.8,2.1142,0.5142,1.1399,-0.09,110.04,53.05,106.61,51.029372,13.732764,133.5,2.56,2.38,0.95,3.01,3,7,5,30.92
140214,74859000,1392364142565.321,0.9511,0.3824,-9.6589,1.4857,1.5428,0.1714,1.1299,-0.11,110.03,53.05,106.61,51.029372,13.732764,133.5,2.56,2.38,0.95,3.01,3,7,5,30.92
140214,74859000,1392364142574.538,0.3824,-0.353,-9.5412,1.6571,1.8285,0.3428,1.1399,-0.13,110.02,53.05,106.61,51.029372,13.732764,133.5,2.56,2.38,0.95,3.01,3,7,5,30.92
140214,74859000,1392364142590.31,0.3824,-0.2843,-9.8943,1.4857,2.5142,0.3428,1.1599,-0.15,110.01,53.05,106.61,51.029372,13.732764,133.5,2.56,2.38,0.95,3.01,3,7,5,30.92
140214,74859000,1392364142605.789,0.5785,0.3039,-10.4924,0.9714,1.5428,0.3428,1.1599,-0.18,110.0,53.05,106.61,51.029369,13.732784,133.5,4.14,2.64,3.19,3.01,3,7,5,30.92
140214,74859000,1392364142627.896,0.5001,0.0686,-10.0119,1.1428,1.3142,0.5714,1.18,-0.22,109.99,53.0,106.6,51.029369,13.732784,133.56,4.14,2.64,3.19,3.01,3,7,5,30.92
140214,74859200,1392364142647.1802,-0.5393,0.451,-10.0413,1.7142,0.0,0.4,1.1599,-0.23,109.98,53.0,106.6,51.029369,13.732784,133.56,4.14,2.64,3.19,3.01,3,7,5,30.92
140214,74859200,1392364142659.323,-0.5295,0.7452,-10.0904,1.6571,-0.2857,0.2857,1.12,-0.21,109.97,53.0,106.6,51.029369,13.732784,133.56,4.14,2.64,3.19,3.01,3,7,5,30.92
140214,74859200,1392364142670.332,-0.5687,0.5197,-10.6101,1.3714,-0.6285,0.3428,1.09,-0.17,109.96,53.0,106.6,51.029369,13.732784,133.56,4.14,2.64,3.19,3.01,3,7,5,30.92
140214,74859200,1392364142693.212,-0.5687,0.755,-10.5513,1.2571,0.1142,0.4571,1.09,-0.17,109.95,53.0,106.6,51.029365,13.732804,133.56,2.56,2.38,0.95,3.02,3,7,5,30.92
140214,74859200,1392364142710.604,-0.9904,0.3137,-10.1296,1.0285,-0.1714,0.5714,1.09,-0.17,109.94,52.95,106.47,51.029365,13.732804,133.63,2.56,2.38,0.95,3.02,3,7,5,30.92
140214,74859300,1392364142729.0,-0.8531,0.049,-9.0705,0.6857,0.8,0.4571,1.08,-0.16,109.93,52.95,106.47,51.029365,13.732804,133.63,2.56,2.38,0.95,3.02,3,7,5,30.92
140214,74859300,1392364142745.2158,-0.5197,0.0098,-9.6099,0.4571,1.7142,0.3428,1.0699,-0.16,109.92,52.95,106.47,51.029365,13.732804,133.63,2.56,2.38,0.95,3.02,3,7,5,30.92
140214,74859300,1392364142754.451,-0.049,0.1176,-9.4726,0.1142,2.5142,0.6285,1.1299,-0.22,109.91,52.95,106.47,51.029365,13.732804,133.63,2.56,2.38,0.95,3.02,3,7,5,30.92
140214,74859300,1392364142772.906,-0.2059,-0.1568,-10.3061,0.5714,2.5142,0.5714,1.21,-0.3,109.9,52.95,106.47,51.029362,13.732824,133.63,4.14,2.63,3.19,3.01,3,7,5,30.92
140214,74859300,1392364142785.338,0.1667,0.6471,-9.3745,0.7428,3.7142,0.5142,1.33,-0.43,109.89,52.9,106.25,51.029362,13.732824,133.7,4.14,2.63,3.19,3.01,3,7,5,30.92
140214,74859400,1392364142803.8782,-0.0294,0.3432,-9.8746,0.9142,2.5714,0.5142,1.4499,-0.53,109.88,52.9,106.25,51.029362,13.732824,133.7,4.14,2.63,3.19,3.01,3,7,5,30.92
140214,74859400,1392364142813.801,-0.1568,0.2941,-10.159,1.0857,1.8857,0.6285,1.55,-0.63,109.88,52.9,106.25,51.029362,13.732824,133.7,4.14,2.63,3.19,3.01,3,7,5,30.92
140214,74859400,1392364142832.631,-0.4314,0.098,-9.7766,0.6857,1.3142,0.6857,1.62,-0.68,109.87,52.9,106.25,51.029362,13.732824,133.7,4.14,2.63,3.19,3.01,3,7,5,30.92
140214,74859400,1392364142846.045,-0.7746,0.5589,-10.3061,0.8571,-0.2285,0.6857,1.6899,-0.74,109.85,52.9,106.25,51.029359,13.732844,133.7,4.14,2.64,3.2,3.01,3,7,5,30.92
140214,74859400,1392364142862.99,-1.1178,0.0784,-10.6199,0.9714,0.0,0.6857,1.6999,-0.74,109.84,52.87,106.2,51.029359,13.732844,133.76,4.14,2.64,3.2,3.01,3,6,5,30.92
140214,74859500,1392364142886.461,-0.4412,-0.098,-9.7177,1.0857,-0.0571,0.5714,1.74,-0.78,109.82,52.87,106.2,51.029359,13.732844,133.76,4.14,2.64,3.2,3.01,3,6,5,30.92
140214,74859500,1392364142904.66,-1.1178,-0.1961,-10.1296,1.4857,-0.2285,0.5714,1.75,-0.8,109.81,52.87,106.2,51.029359,13.732844,133.76,4.14,2.64,3.2,3.01,3,6,5,30.92
140214,74859500,1392364142916.782,-0.9315,-0.3432,-9.8158,1.3714,0.7428,0.6285,1.74,-0.78,109.8,52.87,106.2,51.029359,13.732844,133.76,4.14,2.64,3.2,3.01,3,6,5,30.92
140214,74859500,1392364142925.8289,-0.7844,-0.2157,-9.9629,0.9714,0.5714,0.8,1.7899,-0.82,109.78,52.87,106.2,51.029359,13.732844,133.76,4.14,2.64,3.2,3.01,3,6,5,30.92
140214,74859500,1392364142945.261,-0.7158,0.0196,-11.071,1.0285,0.5714,0.7428,1.7899,-0.8,109.76,52.87,106.15,51.029356,13.732864,133.82,4.14,2.64,3.2,3.02,3,6,5,30.92
140214,74859600,1392364142962.049,0.2255,-0.2843,-9.9825,1.2571,2.2857,0.7428,1.8799,-0.89,109.74,52.87,106.15,51.029356,13.732864,133.82,4.14,2.64,3.2,3.02,3,6,5,30.92
140214,74859600,1392364142970.317,0.049,-0.6471,-9.2372,1.1428,2.4,0.8571,1.9199,-0.91,109.72,52.87,106.15,51.029356,13.732864,133.82,4.14,2.64,3.2,3.02,3,6,5,30.92
140214,74859600,1392364142988.057,0.1078,-0.6079,-9.2471,1.0285,1.7714,0.9142,1.96,-0.94,109.7,52.87,106.15,51.029356,13.732864,133.82,4.14,2.64,3.2,3.02,3,6,5,30.97
140214,74859600,1392364143006.638,0.4903,-0.2549,-9.7864,1.4285,2.1714,1.0285,2.0,-0.98,109.67,52.87,106.15,51.029356,13.732864,133.82,4.14,2.64,3.2,3.02,3,6,5,30.97
140214,74859600,1392364143025.237,0.5295,-0.5589,-10.3649,1.6571,1.1428,1.0857,2.06,-1.03,109.65,52.86,105.92,51.029353,13.732884,133.88,4.14,2.64,3.19,3.02,3,6,5,30.97
140214,74859700,1392364143046.426,0.6864,-0.9806,-9.453,2.2857,2.5142,1.2,2.06,-1.03,109.62,52.86,105.92,51.029353,13.732884,133.88,4.14,2.64,3.19,3.02,3,6,5,30.97
140214,74859700,1392364143056.552,0.1667,-0.2843,-8.9333,2.1142,0.4,1.0857,2.03,-0.99,109.59,52.86,105.92,51.029353,13.732884,133.88,4.14,2.64,3.19,3.02,3,6,5,30.97
140214,74859700,1392364143070.529,-0.2157,-0.4903,-9.8354,1.6571,0.8571,0.9714,1.93,-0.88,109.56,52.86,105.92,51.029353,13.732884,133.88,4.14,2.64,3.19,3.02,3,6,5,30.97
140214,74859700,1392364143085.277,0.3334,0.147,-10.0708,1.4857,0.6285,1.1428,1.9099,-0.85,109.53,52.86,105.92,51.029353,13.732884,133.88,4.14,2.64,3.19,3.02,3,6,5,30.97
140214,74859700,1392364143103.955,0.0686,-0.3628,-10.7376,2.0,0.0571,1.0285,1.87,-0.79,109.5,52.85,105.87,51.02935,13.732904,133.93,2.56,2.38,0.95,3.03,3,6,5,30.97
140214,74859800,1392364143116.3052,0.3137,-0.3726,-9.4432,1.3714,0.2285,1.1428,1.86,-0.77,109.47,52.85,105.87,51.02935,13.732904,133.93,2.56,2.38,0.95,3.03,3,6,5,30.97
140214,74859800,1392364143133.747,-0.1372,-0.1274,-9.3843,1.2,0.4,0.9714,1.8,-0.72,109.44,52.85,105.87,51.02935,13.732904,133.93,2.56,2.38,0.95,3.03,3,6,5,30.97
140214,74859800,1392364143145.24,0.0294,-0.4216,-10.0806,1.0857,0.5142,1.1428,1.7599,-0.67,109.41,52.85,105.87,51.02935,13.732904,133.93,2.56,2.38,0.95,3.03,3,6,5,30.97
140214,74859800,1392364143154.519,-0.1667,-0.2549,-10.6297,1.0857,1.2,1.3142,1.7599,-0.68,109.38,52.85,105.87,51.02935,13.732904,133.93,2.56,2.38,0.95,3.03,3,6,5,30.97
140214,74859800,1392364143185.271,0.7158,-0.5589,-9.5412,1.2,2.0571,1.2571,1.7599,-0.68,109.34,52.87,105.82,51.029347,13.732924,133.99,2.56,2.38,0.95,3.04,3,6,5,30.97
140214,74859900,1392364143198.175,0.5589,-0.2451,-9.6883,1.7714,2.1142,1.3142,1.81,-0.72,109.31,52.87,105.82,51.029347,13.732924,133.99,2.56,2.38,0.95,3.04,3,6,5,30.97
140214,74859900,1392364143211.212,1.3924,-0.2451,-8.7764,1.8857,2.5142,1.2,1.81,-0.72,109.28,52.87,105.82,51.029347,13.732924,133.99,2.56,2.38,0.95,3.04,3,6,5,30.97
140214,74859900,1392364143222.087,0.4314,-0.1274,-10.2375,2.4,1.1428,1.2571,1.81,-0.72,109.25,52.87,105.82,51.029347,13.732924,133.99,2.56,2.38,0.95,3.04,3,6,5,30.97
140214,74859900,1392364143235.857,0.5393,-0.402,-10.2473,2.2857,1.8857,1.3142,1.81,-0.71,109.22,52.87,105.82,51.029347,13.732924,133.99,2.56,2.38,0.95,3.04,3,6,5,30.97
140214,74859900,1392364143250.44,0.3039,-0.4314,-10.0904,1.5428,0.5142,1.3714,1.81,-0.6899,109.19,52.92,105.66,51.029344,13.732944,134.05,2.56,2.38,0.95,3.04,3,6,5,30.97
140214,74900000,1392364143272.475,0.0882,-0.2745,-10.5316,0.5142,-0.2857,1.2571,1.74,-0.61,109.15,52.92,105.66,51.029344,13.732944,134.05,2.56,2.38,0.95,3.04,3,6,5,30.97
140214,74900000,1392364143285.294,-0.353,0.2451,-10.2571,-0.5142,-0.5142,1.3714,1.68,-0.56,109.12,52.92,105.66,51.029344,13.732944,134.05,2.56,2.38,0.95,3.04,3,6,5,30.97
140214,74900000,1392364143294.83,0.2451,-0.098,-10.2375,-0.1142,0.2857,1.4285,1.65,-0.55,109.09,52.92,105.66,51.029344,13.732944,134.05,2.56,2.38,0.95,3.04,3,6,5,30.97
140214,74900000,1392364143313.948,-0.1863,-0.0392,-10.3551,0.0,-0.3428,1.3714,1.59,-0.5,109.06,52.92,105.66,51.029344,13.732944,134.05,2.56,2.38,0.95,3.04,3,6,5,30.97
140214,74900000,1392364143333.77,-0.1765,0.1863,-10.11,0.0,0.2285,1.3142,1.56,-0.48,109.03,52.96,105.54,51.029341,13.732964,134.1,2.56,2.38,0.95,3.05,3,6,5,30.97
140214,74900100,1392364143345.253,-0.3824,0.3039,-10.463,-0.3428,0.2857,1.2571,1.5,-0.44,109.0,52.96,105.54,51.029341,13.732964,134.1,2.56,2.38,0.95,3.05,3,6,5,30.97
140214,74900100,1392364143365.318,-0.451,0.3628,-9.806,-0.1714,0.2857,1.2571,1.4699,-0.43,108.97,52.96,105.54,51.029341,13.732964,134.1,2.56,2.38,0.95,3.05,3,6,5,30.97
140214,74900100,1392364143375.4722,-0.706,-0.2843,-10.2865,0.0,1.6571,1.3714,1.4099,-0.38,108.94,52.96,105.54,51.029341,13.732964,134.1,2.56,2.38,0.95,3.05,3,6,5,30.97
140214,74900100,1392364143385.3108,-0.3137,-0.3334,-10.1982,-0.3428,1.7142,1.3142,1.4499,-0.42,108.9,52.96,105.54,51.029341,13.732964,134.1,2.56,2.38,0.95,3.05,3,6,5,30.97
140214,74900100,1392364143454.69,-0.3824,-0.5687,-9.6491,-0.5142,2.2285,1.4285,1.4699,-0.45,108.87,52.99,105.46,51.029337,13.732984,134.16,4.14,2.63,3.19,3.05,3,6,5,30.97
140214,74900200,1392364143465.2268,-0.049,0.0882,-10.0021,-0.8571,2.0,1.2571,1.49,-0.49,108.85,52.99,105.46,51.029337,13.732984,134.16,4.14,2.63,3.19,3.05,3,6,5,30.97
140214,74900200,1392364143476.77,-0.4804,-0.353,-9.6981,-0.9142,1.9428,1.3714,1.53,-0.56,108.82,52.99,105.46,51.029337,13.732984,134.16,4.14,2.63,3.19,3.05,3,6,5,30.97
140214,74900200,1392364143489.37,-0.5295,-0.5393,-10.3551,-0.6857,0.7428,1.3714,1.59,-0.63,108.79,52.99,105.46,51.029337,13.732984,134.16,4.14,2.63,3.19,3.05,3,6,5,30.97
140214,74900200,1392364143499.008,-0.5687,0.3628,-9.6883,-0.2857,1.0857,1.2571,1.62,-0.7,108.77,52.99,105.46,51.029337,13.732984,134.16,4.14,2.63,3.19,3.05,3,6,5,30.97
140214,74900200,1392364143518.882,-0.402,0.3235,-8.796,0.2285,1.7142,1.2571,1.68,-0.79,108.74,52.98,105.5,51.029334,13.733004,134.22,2.56,2.38,0.95,3.06,3,6,5,30.97
140214,74900300,1392364143530.3591,-1.2747,0.1274,-10.3257,0.5142,0.2285,1.2,1.6999,-0.82,108.71,52.98,105.5,51.029334,13.733004,134.22,2.56,2.38,0.95,3.06,3,6,5,30.97
140214,74900300,1392364143547.884,-1.0982,0.0098,-10.0904,0.1142,0.2285,1.2,1.75,-0.86,108.69,52.98,105.5,51.029334,13.733004,134.22,2.56,2.38,0.95,3.06,3,6,5,30.97
140214,74900300,1392364143567.036,-0.7158,0.0098,-9.9727,0.0571,1.2,1.1428,1.8,-0.92,108.66,52.98,105.5,51.029334,13.733004,134.22,2.56,2.38,0.95,3.06,3,6,5,30.97
140214,74900300,1392364143587.3188,-0.7746,0.1078,-9.8158,0.1142,1.4285,1.0285,1.84,-0.97,108.64,52.98,105.5,51.029334,13.733004,134.22,2.56,2.38,0.95,3.06,3,6,5,30.97
140214,74900300,1392364143609.3882,-0.7844,-0.0784,-8.5606,-0.4,1.7714,1.2,1.9199,-1.05,108.62,52.95,105.45,51.029331,13.733023,134.28,4.14,2.63,3.2,3.06,3,6,5,30.97
140214,74900400,1392364143624.655,0.098,-1.2061,-10.1786,-0.4,1.7142,1.1428,1.9799,-1.12,108.59,52.95,105.45,51.029331,13.733023,134.28,4.14,2.63,3.2,3.06,3,6,5,30.97
140214,74900400,1392364143632.741,0.3039,-0.4412,-10.9043,-1.0857,1.9428,1.0857,2.11,-1.27,108.57,52.95,105.45,51.029331,13.733023,134.28,4.14,2.63,3.2,3.06,3,6,5,30.97
140214,74900400,1392364143651.762,0.5785,0.1078,-10.0217,-0.2285,2.9714,0.9714,2.2299,-1.43,108.54,52.95,105.45,51.029331,13.733023,134.28,4.14,2.63,3.2,3.06,3,6,5,30.97
140214,74900400,1392364143665.237,0.1274,0.049,-7.4427,0.5714,3.3714,0.9142,2.2899,-1.51,108.52,52.95,105.45,51.029331,13.733023,134.28,4.14,2.63,3.2,3.06,3,6,5,30.97
140214,74900400,1392364143686.859,-0.0098,-0.706,-9.0117,0.0,2.2857,1.0857,2.34,-1.58,108.5,52.91,105.37,51.029328,13.733043,134.33,4.14,2.63,3.19,3.07,3,6,5,30.97
140214,74900500,1392364143704.752,0.5197,-1.2257,-10.9043,-1.3714,0.7428,1.2,2.4099,-1.65,108.47,52.91,105.37,51.029328,13.733043,134.33,4.14,2.63,3.19,3.07,3,6,5,30.97
140214,74900500,1392364143713.787,0.657,0.353,-9.5805,0.4571,1.0857,1.2,2.3799,-1.69,108.45,52.91,105.37,51.029328,13.733043,134.33,4.14,2.63,3.19,3.07,3,6,5,30.97
140214,74900500,1392364143730.52,-0.1961,0.755,-6.4719,1.9428,1.6571,0.7428,2.31,-1.65,108.43,52.91,105.37,51.029328,13.733043,134.33,4.14,2.63,3.19,3.07,3,6,5,30.97
140214,74900500,1392364143742.6401,0.3334,0.1274,-12.2869,1.7714,-0.9142,0.9142,2.28,-1.64,108.41,52.91,105.37,51.029328,13.733043,134.33,4.14,2.63,3.19,3.07,3,6,5,30.97
140214,74900500,1392364143766.906,0.9315,0.3432,-9.0019,3.3142,2.9714,0.7428,2.25,-1.58,108.39,52.91,105.21,51.029325,13.733064,134.38,4.14,2.63,3.2,3.07,3,6,5,30.97
140214,74900600,1392364143788.0608,0.5589,0.4216,-9.3549,4.0571,1.8857,0.6285,2.2299,-1.53,108.37,52.91,105.21,51.029325,13.733064,134.38,4.14,2.63,3.2,3.07,3,6,5,30.97
140214,74900600,1392364143800.407,0.755,0.4216,-9.0607,1.7714,2.7428,0.9714,2.2899,-1.53,108.36,52.91,105.21,51.029325,13.733064,134.38,4.14,2.63,3.2,3.07,3,6,5,30.97
140214,74900600,1392364143815.9202,0.9511,-0.5099,-8.9921,2.1142,2.2285,0.7428,2.3799,-1.58,108.34,52.91,105.21,51.029325,13.733064,134.38,4.14,2.63,3.2,3.07,3,6,5,30.97
140214,74900600,1392364143826.9292,0.5001,-1.1767,-10.0315,-0.4,2.0,0.9714,2.3799,-1.58,108.31,52.91,105.21,51.029325,13.733064,134.38,4.14,2.63,3.2,3.07,3,6,5,30.97
140214,74900600,1392364143853.759,0.1863,0.0588,-9.8354,-2.0571,1.1428,1.1428,2.4099,-1.64,108.29,52.92,105.02,51.029322,13.733084,134.4199,4.14,2.63,3.2,3.08,3,6,5,30.97
140214,74900700,1392364143873.107,0.9806,0.2255,-8.7175,0.4,4.2285,1.1428,2.4199,-1.71,108.27,52.92,105.02,51.029322,13.733084,134.4199,4.14,2.63,3.2,3.08,3,6,5,30.97
140214,74900700,1392364143885.275,0.7354,-0.2059,-10.0512,2.4,1.2571,0.9142,1.93,-1.35,108.23,52.92,105.02,51.029322,13.733084,134.4199,4.14,2.63,3.2,3.08,3,6,5,30.97
140214,74900700,1392364143894.5989,0.0392,0.098,-11.2475,2.0571,1.0285,1.3142,2.28,-1.64,108.2,52.92,105.02,51.029322,13.733084,134.4199,4.14,2.63,3.2,3.08,3,6,5,30.97
140214,74900700,1392364143909.608,0.0686,-0.4804,-10.1688,3.3142,2.5142,1.0857,2.3499,-1.7,108.17,52.92,105.02,51.029322,13.733084,134.4199,4.14,2.63,3.2,3.08,3,6,5,30.97
140214,74900700,1392364143929.454,0.6668,-0.7746,-10.0119,1.6,0.5714,1.3142,2.8899,-1.98,108.12,52.94,104.99,51.029319,13.733104,134.46,2.56,2.38,0.95,3.1,3,6,5,30.97
140214,74900800,1392364143946.1902,0.3922,-0.3628,-9.3843,0.3428,0.5714,1.3142,2.55,-1.53,108.06,52.94,104.99,51.029319,13.733104,134.46,2.56,2.38,0.95,3.1,3,6,5,30.97
140214,74900800,1392364143965.314,-0.6766,0.0392,-10.3944,0.3428,-0.6285,1.2571,2.6699,-1.53,108.02,52.94,104.99,51.029319,13.733104,134.46,2.56,2.38,0.95,3.1,3,6,5,30.97
140214,74900800,1392364143974.797,-0.9511,-0.147,-11.777,0.1714,0.1142,1.4285,2.6399,-1.51,107.99,52.94,104.99,51.029319,13.733104,134.46,2.56,2.38,0.95,3.1,3,6,5,30.97
140214,74900800,1392364143989.445,-0.2941,-0.0392,-10.9337,0.5714,1.0857,1.0857,2.5999,-1.49,107.96,52.94,104.99,51.029319,13.733104,134.46,2.56,2.38,0.95,3.1,3,6,5,30.97
140214,74900800,1392364144010.142,-0.2843,0.1176,-10.5513,0.9714,1.8285,1.0285,2.58,-1.48,107.94,52.95,104.89,51.029316,13.733124,134.51,2.56,2.38,0.95,3.11,3,6,5,30.97
140214,74900900,1392364144025.0461,-0.4412,0.1176,-9.2667,-0.1142,1.0285,0.9142,2.5999,-1.5,107.92,52.95,104.89,51.029316,13.733124,134.51,2.56,2.38,0.95,3.11,3,6,5,30.97
140214,74900900,1392364144034.425,-1.01,-0.451,-10.1198,-0.8,0.4,0.9714,2.58,-1.48,107.9,52.95,104.89,51.029316,13.733124,134.51,2.56,2.38,0.95,3.11,3,6,5,30.97
140214,74900900,1392364144045.307,-0.0294,-0.147,-10.4434,-0.7428,0.5714,1.0857,2.5999,-1.52,107.88,52.95,104.89,51.029316,13.733124,134.51,2.56,2.38,0.95,3.11,3,6,5,30.97
140214,74900900,1392364144057.048,-0.1176,-0.3726,-10.2375,-0.3428,1.7714,1.1428,2.5999,-1.55,107.86,52.95,104.89,51.029316,13.733124,134.51,2.56,2.38,0.95,3.11,3,6,5,30.97
140214,74900900,1392364144072.83,0.3432,-0.8825,-9.0705,-1.6,1.8285,1.2571,2.5999,-1.55,107.84,52.94,104.67,51.029313,13.733144,134.56,2.56,2.38,0.95,3.13,3,6,5,30.97
140214,74901000,1392364144092.299,-1.0688,-0.5785,-8.4822,-1.9428,2.1714,1.3142,2.55,-1.56,107.81,52.94,104.67,51.029313,13.733144,134.56,2.56,2.38,0.95,3.13,3,6,5,30.97
140214,74901000,1392364144104.78,-0.402,0.7354,-10.3748,-1.8857,2.0,1.4285,2.2199,-1.41,107.77,52.94,104.67,51.029313,13.733144,134.56,2.56,2.38,0.95,3.13,3,6,5,30.97
140214,74901000,1392364144115.292,-0.2353,0.5099,-10.1198,-0.9142,2.5142,1.3714,2.3,-1.68,107.72,52.94,104.67,51.029313,13.733144,134.56,2.56,2.38,0.95,3.13,3,6,5,30.97
140214,74901000,1392364144129.294,0.2451,0.5295,-10.8847,0.4,2.3428,1.3142,2.5,-1.9,107.67,52.94,104.67,51.029313,13.733144,134.56,2.56,2.38,0.95,3.13,3,6,5,30.97
140214,74901000,1392364144154.634,-1.108,0.2059,-10.5611,0.4571,0.6857,1.4857,2.7199,-2.24,107.63,52.88,104.34,51.02931,13.733163,134.61,2.56,2.38,0.95,3.15,3,6,5,30.97
140214,74901100,1392364144169.5818,-1.2355,-0.1078,-9.6295,0.9142,0.0571,1.4285,2.7599,-2.38,107.59,52.88,104.34,51.02931,13.733163,134.61,2.56,2.38,0.95,3.15,3,6,5,30.97
140214,74901100,1392364144179.046,-1.0982,0.049,-10.4532,1.4285,0.0,1.4857,2.4,-2.13,107.55,52.88,104.34,51.02931,13.733163,134.61,2.56,2.38,0.95,3.15,3,6,5,30.97
140214,74901100,1392364144189.593,0.3726,-0.5785,-10.6395,2.2285,1.0285,1.2571,2.46,-2.22,107.51,52.88,104.34,51.02931,13.733163,134.61,2.56,2.38,0.95,3.15,3,6,5,30.97
140214,74901100,1392364144201.683,-1.2747,0.3235,-10.0217,-0.4,-0.9142,1.2,2.59,-2.13,107.48,52.88,104.34,51.02931,13.733163,134.61,2.56,2.38,0.95,3.15,3,6,5,30.97
140214,74901100,1392364144226.437,0.049,-0.6275,-10.0512,0.5714,0.7428,1.2,2.2599,-1.82,107.44,52.52,103.83,51.029308,13.733183,134.66,2.56,2.38,0.95,3.16,3,6,5,30.97
140214,74901200,1392364144245.2332,-0.2549,0.1568,-8.8744,0.9714,0.9714,1.2571,2.2299,-1.81,107.42,52.52,103.83,51.029308,13.733183,134.66,2.56,2.38,0.95,3.16,3,6,5,30.97
140214,74901200,1392364144254.484,0.0392,0.0392,-8.796,0.4,1.8857,1.3714,2.11,-1.67,107.39,52.52,103.83,51.029308,13.733183,134.66,2.56,2.38,0.95,3.16,3,6,5,30.97
140214,74901200,1392364144265.3,0.2353,-1.2061,-9.8256,1.6,0.9142,1.4285,2.08,-1.65,107.36,52.52,103.83,51.029308,13.733183,134.66,2.56,2.38,0.95,3.16,3,6,5,30.97
140214,74901200,1392364144277.0579,-0.3824,-1.2649,-9.3059,0.6285,1.8857,1.3714,2.03,-1.58,107.33,52.52,103.83,51.029308,13.733183,134.66,2.56,2.38,0.95,3.16,3,6,5,30.97
140214,74901200,1392364144293.397,0.6766,-0.6373,-9.3157,1.2571,2.1714,1.2571,2.0399,-1.6,107.3,52.49,103.49,51.029305,13.733203,134.7,2.56,2.38,0.95,3.17,3,6,5,30.97
140214,74901300,1392364144310.198,0.2157,0.2451,-9.5412,-0.1142,1.7142,1.6,2.08,-1.66,107.27,52.49,103.49,51.029305,13.733203,134.7,2.56,2.38,0.95,3.17,3,6,5,30.97
140214,74901300,1392364144325.208,-0.0784,-0.3628,-9.0117,1.4857,1.4285,1.4285,2.1399,-1.7,107.23,52.49,103.49,51.029305,13.733203,134.7,2.56,2.38,0.95,3.17,3,6,5,30.97
140214,74901300,1392364144345.196,0.1961,0.5001,-10.2669,2.0571,1.7142,1.2571,2.1999,-1.77,107.19,52.49,103.49,51.029305,13.733203,134.7,2.56,2.38,0.95,3.17,3,6,5,30.97
140214,74901300,1392364144354.461,0.3726,-0.3039,-9.9139,0.9142,1.8857,1.2,2.3199,-1.86,107.16,52.49,103.49,51.029305,13.733203,134.7,2.56,2.38,0.95,3.17,3,6,5,30.97
140214,74901300,1392364144372.897,0.402,-0.3922,-9.8354,1.0285,1.2571,1.0857,2.37,-1.9,107.13,52.45,103.01,51.029303,13.733223,134.75,4.14,2.63,3.19,3.18,3,6,5,30.97
140214,74901400,1392364144381.426,0.3039,-0.0784,-9.5216,0.9142,1.7142,0.9714,2.4499,-1.97,107.09,52.45,103.01,51.029303,13.733223,134.75,4.14,2.63,3.19,3.18,3,6,5,30.97
140214,74901400,1392364144392.449,0.3039,-0.1176,-10.7572,1.2571,1.2571,1.1428,2.5,-2.0299,107.06,52.45,103.01,51.029303,13.733223,134.75,4.14,2.63,3.19,3.18,3,6,5,30.97
140214,74901400,1392364144408.205,0.5491,-0.4903,-10.208,1.1428,1.9428,1.0857,2.53,-2.06,107.03,52.45,103.01,51.029303,13.733223,134.75,4.14,2.63,3.19,3.18,3,6,5,30.97
140214,74901400,1392364144425.8708,0.657,-0.0882,-10.1394,0.6285,0.3428,1.0285,2.5699,-2.11,106.99,52.45,103.01,51.029303,13.733223,134.75,4.14,2.63,3.19,3.18,3,6,5,30.97
140214,74901400,1392364144452.4429,0.9217,-0.3922,-10.1884,1.0857,1.2,1.0285,2.58,-2.14,106.96,52.48,102.67,51.029301,13.733244,134.79,4.14,2.63,3.2,3.19,3,7,5,30.97
140214,74901500,1392364144469.101,0.5491,0.2157,-9.453,1.7142,1.7142,1.0857,2.56,-2.14,106.93,52.48,102.67,51.029301,13.733244,134.79,4.14,2.63,3.2,3.19,3,7,5,30.97
140214,74901500,1392364144485.484,0.3039,-0.0098,-10.6885,1.4285,0.7428,1.0857,2.5099,-2.09,106.9,52.48,102.67,51.029301,13.733244,134.79,4.14,2.63,3.2,3.19,3,7,5,30.97
140214,74901500,1392364144504.66,0.5589,-0.0882,-10.4434,0.8,0.8,1.3714,2.5099,-2.09,106.86,52.48,102.67,51.029301,13.733244,134.79,4.14,2.63,3.2,3.19,3,7,5,30.97
140214,74901500,1392364144513.698,0.2941,-0.5099,-9.5216,1.0285,-0.1714,1.3142,2.46,-2.04,106.83,52.48,102.67,51.029301,13.733244,134.79,4.14,2.63,3.2,3.19,3,7,5,30.97
140214,74901500,1392364144533.063,0.1078,-0.2059,-10.2767,0.6857,-0.2857,1.3142,2.3499,-1.94,106.79,52.84,102.44,51.029298,13.733265,134.83,4.15,2.64,3.2,3.21,3,7,5,30.97
140214,74901600,1392364144545.23,-0.3039,0.1176,-9.9237,0.8571,0.2285,1.3714,2.2899,-1.9,106.75,52.84,102.44,51.029298,13.733265,134.83,4.15,2.64,3.2,3.21,3,7,5,30.97
140214,74901600,1392364144554.497,-0.5099,-0.2451,-10.9043,0.2285,-0.6857,1.2571,2.2199,-1.83,106.72,52.84,102.44,51.029298,13.733265,134.83,4.15,2.64,3.2,3.21,3,7,5,30.97
140214,74901600,1392364144569.4822,-0.706,0.2255,-10.1296,0.5714,0.2285,1.4285,2.2199,-1.85,106.68,52.84,102.44,51.029298,13.733265,134.83,4.15,2.64,3.2,3.21,3,7,5,31.04
140214,74901600,1392364144584.387,-0.7648,0.402,-10.0119,0.1142,0.8571,1.4285,2.21,-1.84,106.65,52.84,102.44,51.029298,13.733265,134.83,4.15,2.64,3.2,3.21,3,7,5,31.04
140214,74901600,1392364144603.419,-0.9707,0.0294,-10.2473,0.0571,-0.2285,1.3714,2.25,-1.89,106.61,52.96,102.28,51.029296,13.733286,134.86,4.14,2.63,3.19,3.22,3,7,5,31.04
140214,74901700,1392364144625.8298,-0.6766,0.0294,-10.1002,-0.4571,2.0,1.3714,2.2599,-1.9,106.58,52.96,102.28,51.029296,13.733286,134.86,4.14,2.63,3.19,3.22,3,7,5,31.04
140214,74901700,1392364144645.708,-0.2451,0.2059,-9.5903,0.0571,2.4571,1.4285,2.3899,-2.04,106.54,52.96,102.28,51.029296,13.733286,134.86,4.14,2.63,3.19,3.22,3,7,5,31.04
140214,74901700,1392364144665.173,0.0294,-0.3432,-9.7374,-0.2285,3.4285,1.6571,2.56,-2.19,106.5,52.96,102.28,51.029296,13.733286,134.86,4.14,2.63,3.19,3.22,3,7,5,31.04
140214,74901700,1392364144684.261,0.0196,0.4804,-9.6197,-0.2285,3.2571,1.4285,2.71,-2.36,106.47,52.96,102.28,51.029296,13.733286,134.86,4.14,2.63,3.19,3.22,3,7,5,31.04
140214,74901700,1392364144705.134,0.0392,-0.0882,-9.6197,0.0571,2.5142,1.5428,2.83,-2.47,106.44,53.04,102.25,51.029293,13.733307,134.9,2.56,2.38,0.95,3.24,3,7,5,31.04
140214,74901800,1392364144718.456,-0.2157,-0.5001,-8.5606,-0.2285,2.4,1.4285,2.93,-2.55,106.41,53.04,102.25,51.029293,13.733307,134.9,2.56,2.38,0.95,3.24,3,7,5,31.04
140214,74901800,1392364144729.395,-0.8335,-0.5393,-9.5118,-0.4,0.5142,1.5428,2.9799,-2.61,106.37,53.04,102.25,51.029293,13.733307,134.9,2.56,2.38,0.95,3.24,3,7,5,31.04
140214,74901800,1392364144745.079,-0.5001,0.0098,-10.6199,-1.0857,0.6857,1.6,2.99,-2.64,106.34,53.04,102.25,51.029293,13.733307,134.9,2.56,2.38,0.95,3.24,3,7,5,31.04
140214,74901800,1392364144765.268,-0.8629,0.353,-10.6689,-1.0857,-0.2857,1.3714,2.9699,-2.64,106.31,53.04,102.25,51.029293,13.733307,134.9,2.56,2.38,0.95,3.24,3,7,5,31.04
140214,74901800,1392364144786.8408,-1.1767,-0.1078,-9.6589,-0.5714,-0.4,1.5428,2.93,-2.62,106.27,53.1,102.16,51.029291,13.733327,134.93,2.56,2.38,0.95,3.26,3,7,5,31.04
140214,74901900,1392364144800.102,-1.0492,-0.2353,-10.208,-0.5714,0.0571,1.3142,2.9199,-2.63,106.24,53.1,102.16,51.029291,13.733327,134.93,2.56,2.38,0.95,3.26,3,7,5,31.04
140214,74901900,1392364144813.7878,-0.5981,-0.2157,-10.1002,-0.7428,0.6285,1.3714,2.8799,-2.62,106.21,53.1,102.16,51.029291,13.733327,134.93,2.56,2.38,0.95,3.26,3,7,5,31.04
140214,74901900,1392364144829.515,0.0196,0.6177,-10.7082,-1.1428,0.6285,1.3714,2.9099,-2.68,106.17,53.1,102.16,51.029291,13.733327,134.93,2.56,2.38,0.95,3.26,3,7,5,31.04
140214,74901900,1392364144845.953,-0.4314,0.0294,-9.8746,-0.2857,1.3714,1.3714,2.8899,-2.68,106.14,53.1,102.16,51.029291,13.733327,134.93,2.56,2.38,0.95,3.26,3,7,5,31.04
140214,74901900,1392364144871.887,-0.2059,0.4216,-8.7666,0.3428,1.9428,1.3142,2.96,-2.7799,106.11,53.18,101.99,51.029288,13.733348,134.98,2.56,2.38,0.95,3.28,3,7,5,31.04
140214,74902000,1392364144888.251,0.0196,-0.2255,-9.502,0.9142,2.0,1.3142,2.9799,-2.81,106.08,53.18,101.99,51.029288,13.733348,134.98,2.56,2.38,0.95,3.28,3,7,5,31.04
140214,74902000,1392364144905.139,0.7158,0.6766,-9.1294,0.9714,2.0571,1.0285,2.99,-2.82,106.05,53.18,101.99,51.029288,13.733348,134.98,2.56,2.38,0.95,3.28,3,7,5,31.04
140214,74902000,1392364144918.5432,0.2549,-0.098,-9.1392,2.0,2.4571,1.0857,2.99,-2.82,106.02,53.18,101.99,51.029288,13.733348,134.98,2.56,2.38,0.95,3.28,3,7,5,31.04
140214,74902000,1392364144929.5571,0.1961,-0.2059,-9.5216,2.1142,3.0857,1.3714,3.08,-2.89,105.99,53.18,101.99,51.029288,13.733348,134.98,2.56,2.38,0.95,3.28,3,7,5,31.04
140214,74902000,1392364144945.219,-0.8629,-0.6668,-10.1394,2.1714,1.2571,1.3142,3.15,-2.95,105.96,53.26,101.86,51.029285,13.73337,135.01,4.14,2.63,3.2,3.3,3,7,5,31.04
140214,74902100,1392364144965.282,0.5785,0.0294,-8.7371,1.4857,2.0571,1.2,3.24,-3.02,105.94,53.26,101.86,51.029285,13.73337,135.01,4.14,2.63,3.2,3.3,3,7,5,31.04
140214,74902100,1392364144984.385,0.4216,-0.3039,-9.3941,1.7714,2.4571,1.0857,3.28,-3.04,105.91,53.26,101.86,51.029285,13.73337,135.01,4.14,2.63,3.2,3.3,3,7,5,31.04
140214,74902100,1392364144993.652,-0.098,0.0588,-9.6589,1.5428,2.6285,1.3142,3.31,-3.06,105.88,53.26,101.86,51.029285,13.73337,135.01,4.14,2.63,3.2,3.3,3,7,5,31.04
140214,74902100,1392364145006.273,0.1667,-0.6373,-9.1098,2.4,2.0,1.2,3.4099,-3.15,105.85,53.26,101.86,51.029285,13.73337,135.01,4.14,2.63,3.2,3.3,3,7,5,31.04
140214,74902100,1392364145027.394,1.3434,0.5589,-8.2272,1.6571,2.8,0.8571,3.4699,-3.2,105.82,53.29,101.69,51.029283,13.733391,135.05,4.14,2.63,3.2,3.31,3,7,5,31.04
140214,74902200,1392364145045.186,0.2941,1.0002,-11.4926,2.2285,1.7142,0.9714,3.55,-3.28,105.79,53.29,101.69,51.029283,13.733391,135.05,4.14,2.63,3.2,3.31,3,7,5,31.04
140214,74902200,1392364145054.555,0.804,1.1473,-10.4434,2.1142,2.4571,1.2,3.6999,-3.4,105.76,53.29,101.69,51.029283,13.733391,135.05,4.14,2.63,3.2,3.31,3,7,5,31.04
140214,74902200,1392364145065.276,0.2647,0.353,-8.0899,3.8285,2.2857,0.9714,3.77,-3.44,105.74,53.29,101.69,51.029283,13.733391,135.05,4.14,2.63,3.2,3.31,3,7,5,31.04
140214,74902200,1392364145076.8398,0.8923,0.0,-9.5314,3.2571,3.5428,0.9714,3.84,-3.48,105.71,53.29,101.69,51.029283,13.733391,135.05,4.14,2.63,3.2,3.31,3,7,5,31.04
140214,74902200,1392364145093.0059,-0.049,-0.9707,-10.8749,2.2857,0.4,1.0285,3.9399,-3.51,105.69,53.32,101.47,51.029281,13.733411,135.08,4.14,2.63,3.19,3.33,3,7,5,31.04
140214,74902300,1392364145110.219,0.9707,-0.1961,-9.9727,2.2857,1.9428,0.9142,4.0399,-3.57,105.67,53.32,101.47,51.029281,13.733411,135.08,4.14,2.63,3.19,3.33,3,7,5,31.04
140214,74902300,1392364145119.542,-0.2157,0.0686,-10.4434,1.2571,0.8,0.8,4.05,-3.58,105.64,53.32,101.47,51.029281,13.733411,135.08,4.14,2.63,3.19,3.33,3,7,5,31.04
140214,74902300,1392364145132.992,0.3824,-1.5395,-9.7962,1.2,-0.5142,0.6285,4.06,-3.58,105.62,53.32,101.47,51.029281,13.733411,135.08,4.14,2.63,3.19,3.33,3,7,5,31.04
140214,74902300,1392364145145.159,-0.2059,0.5981,-9.7276,-1.0285,-0.2857,0.8571,3.9499,-3.5,105.6,53.32,101.47,51.029281,13.733411,135.08,4.14,2.63,3.19,3.33,3,7,5,31.04
140214,74902300,1392364145166.871,0.9315,-0.0098,-11.2965,0.1714,-0.2857,0.8,3.8499,-3.42,105.57,53.1,101.31,51.029278,13.733431,135.11,4.14,2.63,3.2,3.34,3,7,5,31.04
140214,74902400,1392364145185.204,-0.2353,0.098,-11.0416,-0.9142,-0.6857,0.9714,3.6699,-3.2599,105.55,53.1,101.31,51.029278,13.733431,135.11,4.14,2.63,3.2,3.34,3,7,5,31.04
140214,74902400,1392364145200.562,-1.9121,0.0,-11.6986,0.1142,-3.0857,0.8571,3.49,-3.11,105.52,53.1,101.31,51.029278,13.733431,135.11,4.14,2.63,3.2,3.34,3,7,5,31.04
140214,74902400,1392364145212.401,-0.3922,-0.3039,-9.4628,-1.2,0.2857,0.9714,3.3899,-3.0299,105.5,53.1,101.31,51.029278,13.733431,135.11,4.14,2.63,3.2,3.34,3,7,5,31.04
140214,74902400,1392364145225.198,0.7942,0.402,-10.3453,-1.1428,0.5714,0.9142,3.2899,-2.96,105.48,53.1,101.31,51.029278,13.733431,135.11,4.14,2.63,3.2,3.34,3,7,5,31.04
140214,74902400,1392364145242.043,-0.6962,0.6471,-9.6393,-1.3714,1.1428,0.9714,3.05,-2.82,105.45,53.22,101.14,51.029276,13.733451,135.1399,4.14,2.63,3.2,3.36,3,7,5,31.04
140214,74902500,1392364145255.836,-0.9315,0.3432,-10.9043,-1.2571,0.6285,0.9142,3.3199,-3.18,105.39,53.22,101.14,51.029276,13.733451,135.1399,4.14,2.63,3.2,3.36,3,7,5,31.04
140214,74902500,1392364145278.409,-0.2451,-0.0588,-9.9531,-0.4571,1.7142,0.7428,3.5399,-3.49,105.33,53.22,101.14,51.029276,13.733451,135.1399,4.14,2.63,3.2,3.36,3,7,5,31.04
140214,74902500,1392364145289.4731,-0.0098,1.2453,-9.7374,-1.0857,2.1142,0.8571,3.55,-3.59,105.3,53.22,101.14,51.029276,13.733451,135.1399,4.14,2.63,3.2,3.36,3,7,5,31.04
140214,74902500,1392364145304.302,-0.402,0.1176,-9.806,0.4,1.7714,0.5714,3.62,-3.66,105.28,53.22,101.14,51.029276,13.733451,135.1399,4.14,2.63,3.2,3.36,3,7,5,31.04
140214,74902500,1392364145327.046,-0.402,0.0196,-10.0021,-0.8,2.6857,0.9714,3.7199,-3.77,105.26,53.18,101.02,51.029273,13.733472,135.16,4.14,2.63,3.2,3.37,3,7,5,31.04
140214,74902600,1392364145341.147,-0.5491,0.098,-10.7278,-0.2285,1.6571,0.9714,3.84,-3.9,105.24,53.18,101.02,51.029273,13.733472,135.16,4.14,2.63,3.2,3.37,3,7,5,31.04
140214,74902600,1392364145351.316,-0.5001,-0.0882,-9.6099,-1.5428,1.5428,0.8571,3.93,-3.99,105.23,53.18,101.02,51.029273,13.733472,135.16,4.14,2.63,3.2,3.37,3,7,5,31.04
140214,74902600,1392364145365.294,-1.01,0.9119,-9.6589,-1.4285,-0.6285,0.9714,4.0,-4.09,105.22,53.18,101.02,51.029273,13.733472,135.16,4.14,2.63,3.2,3.37,3,7,5,31.04
140214,74902600,1392364145374.574,-1.0002,0.2353,-9.7177,0.5142,0.3428,0.8571,4.0099,-4.13,105.2,53.18,101.02,51.029273,13.733472,135.16,4.14,2.63,3.2,3.37,3,7,5,31.04
140214,74902600,1392364145393.145,-0.9707,0.2059,-10.2963,0.6285,0.3428,0.9714,4.09,-4.38,105.17,53.14,100.94,51.029271,13.733492,135.1699,4.14,2.63,3.2,3.39,3,7,5,31.04
140214,74902700,1392364145405.999,-1.0394,0.451,-10.0119,0.1142,0.3428,0.8571,4.37,-4.73,105.14,53.14,100.94,51.029271,13.733492,135.1699,4.14,2.63,3.2,3.39,3,7,5,31.04
140214,74902700,1392364145418.5842,-0.0686,0.451,-9.502,0.6857,0.7428,0.5714,4.36,-4.72,105.13,53.14,100.94,51.029271,13.733492,135.1699,4.14,2.63,3.2,3.39,3,7,5,31.04
140214,74902700,1392364145429.668,-0.9904,0.402,-9.6589,1.0285,1.0285,0.8,4.2899,-4.65,105.11,53.14,100.94,51.029271,13.733492,135.1699,4.14,2.63,3.2,3.39,3,7,5,31.04
140214,74902700,1392364145445.193,-0.5197,0.2255,-8.9921,1.6571,1.6,0.9142,4.3199,-4.67,105.1,53.14,100.94,51.029271,13.733492,135.1699,4.14,2.63,3.2,3.39,3,7,5,31.04
140214,74902700,1392364145465.2058,-0.1078,-0.3726,-9.0705,1.2,3.2,0.8,4.34,-4.66,105.08,53.0,100.86,51.029268,13.733513,135.19,2.56,2.38,0.95,3.41,3,6,5,31.04
140214,74902800,1392364145485.157,0.2549,-0.147,-9.9727,0.2285,1.7714,0.8,4.4399,-4.72,105.07,53.0,100.86,51.029268,13.733513,135.19,2.56,2.38,0.95,3.41,3,6,5,31.04
140214,74902800,1392364145494.834,0.3922,-0.2451,-10.0904,1.5428,3.4285,0.8,4.5099,-4.79,105.06,53.0,100.86,51.029268,13.733513,135.19,2.56,2.38,0.95,3.41,3,6,5,31.04
140214,74902800,1392364145509.5461,0.5197,-0.7354,-8.3547,1.4857,2.6857,0.8571,4.58,-4.84,105.04,53.0,100.86,51.029268,13.733513,135.19,2.56,2.38,0.95,3.41,3,6,5,31.04
140214,74902800,1392364145521.302,0.2451,-0.7354,-8.4332,1.5428,2.8,0.9142,4.61,-4.86,105.03,53.0,100.86,51.029268,13.733513,135.19,2.56,2.38,0.95,3.41,3,6,5,31.04
140214,74902800,1392364145544.922,0.1765,-0.3334,-9.7276,1.6571,1.5428,0.8571,4.5999,-4.85,105.01,53.04,100.8199,51.029266,13.733534,135.21,2.56,2.38,0.95,3.43,3,6,5,31.04
140214,74902900,1392364145566.8499,-0.804,-0.3039,-13.3264,1.8857,0.2857,0.8571,4.59,-4.83,105.0,53.04,100.8199,51.029266,13.733534,135.21,2.56,2.38,0.95,3.43,3,6,5,31.04
140214,74902900,1392364145585.217,0.8237,0.2745,-9.8452,1.8285,0.6285,0.7428,4.59,-4.82,104.99,53.04,100.8199,51.029266,13.733534,135.21,2.56,2.38,0.95,3.43,3,6,5,31.04
140214,74902900,1392364145594.87,0.4412,-0.9021,-8.443,1.0857,1.2,0.8571,4.56,-4.78,104.97,53.04,100.8199,51.029266,13.733534,135.21,2.56,2.38,0.95,3.43,3,6,5,31.04
140214,74902900,1392364145612.083,-1.2355,-1.6081,-10.2571,1.6571,-1.0285,0.6285,4.4699,-4.7,104.95,53.04,100.8199,51.029266,13.733534,135.21,2.56,2.38,0.95,3.43,3,6,5,31.04
140214,74902900,1392364145629.676,0.8335,0.3137,-9.8746,-1.2571,0.6857,0.8,4.43,-4.67,104.93,53.04,100.78,51.029263,13.733555,135.23,2.56,2.38,0.95,3.46,3,6,5,31.04
140214,74903000,1392364145643.929,0.0686,0.2647,-11.3063,-0.2285,-0.3428,0.7428,4.3199,-4.59,104.91,53.04,100.78,51.029263,13.733555,135.23,2.56,2.38,0.95,3.46,3,6,5,31.04
140214,74903000,1392364145652.9739,0.0392,0.451,-9.6197,0.3428,0.5714,0.6857,4.1999,-4.51,104.9,53.04,100.78,51.029263,13.733555,135.23,2.56,2.38,0.95,3.46,3,6,5,31.04
140214,74903000,1392364145672.2432,0.9119,0.147,-8.7175,0.3428,1.2,0.5142,4.15,-4.49,104.88,53.04,100.78,51.029263,13.733555,135.23,2.56,2.38,0.95,3.46,3,6,5,31.04
140214,74903000,1392364145685.206,-0.1176,0.402,-10.3257,2.3428,0.1714,0.3428,4.0699,-4.43,104.87,53.04,100.78,51.029263,13.733555,135.23,2.56,2.38,0.95,3.46,3,6,5,31.04
140214,74903000,1392364145703.332,1.0982,0.5687,-10.7376,1.3142,2.4571,0.3428,3.9699,-4.33,104.85,53.09,100.84,51.029261,13.733576,135.25,4.14,2.63,3.2,3.48,3,6,5,31.04
140214,74903100,1392364145720.947,0.2353,-0.0392,-9.4236,1.6571,0.2857,0.5714,4.0099,-4.37,104.83,53.09,100.84,51.029261,13.733576,135.25,4.14,2.63,3.2,3.48,3,6,5,31.04
140214,74903100,1392364145758.611,0.2255,-0.3334,-10.0119,1.0285,0.8571,0.5714,3.9099,-4.28,104.8199,53.09,100.84,51.029261,13.733576,135.25,4.14,2.63,3.2,3.48,3,6,5,31.04
140214,74903100,1392364145944.4612,0.451,0.1372,-10.11,-0.5714,0.7428,0.6285,3.8899,-4.28,104.8,53.09,100.84,51.029261,13.733576,135.25,4.14,2.63,3.2,3.48,3,6,5,31.04
140214,74903100,1392364145957.768,-0.2353,1.0492,-10.4434,-0.4,-0.5714,0.7428,3.86,-4.28,104.78,53.09,100.84,51.029261,13.733576,135.25,4.14,2.63,3.2,3.48,3,6,5,31.04
140214,74903100,1392364145976.533,0.3628,0.755,-9.9727,1.0857,1.0285,0.6285,3.7899,-4.24,104.77,53.16,100.88,51.029258,13.733597,135.26,2.56,2.38,0.95,3.49,3,6,5,31.04
140214,74903200,1392364145985.2,-0.3039,-0.402,-10.7572,1.6571,-0.5714,0.8,3.84,-4.28,104.75,53.16,100.88,51.029258,13.733597,135.26,2.56,2.38,0.95,3.49,3,6,5,31.04
140214,74903200,1392364145996.479,-0.8335,0.3824,-10.7082,0.8571,-0.7428,0.8571,3.7599,-4.2,104.73,53.16,100.88,51.029258,13.733597,135.26,2.56,2.38,0.95,3.49,3,6,5,31.04
140214,74903200,1392364146013.969,0.4804,0.804,-8.9823,0.6857,0.5142,0.9142,3.7899,-4.24,104.7099,53.16,100.88,51.029258,13.733597,135.26,2.56,2.38,0.95,3.49,3,6,5,31.04
140214,74903200,1392364146026.49,-0.2255,0.5393,-10.7082,1.7142,0.1142,1.0285,3.71,-4.15,104.68,53.16,100.88,51.029258,13.733597,135.26,2.56,2.38,0.95,3.49,3,6,5,31.04
140214,74903200,1392364146045.285,0.0588,0.2843,-10.512,2.4,0.2857,1.0285,3.6999,-4.11,104.66,53.24,100.8199,51.029256,13.733618,135.27,4.14,2.63,3.2,3.51,3,6,5,31.04
140214,74903300,1392364146058.6082,-0.7844,0.1078,-10.7474,1.8285,-0.4571,1.0857,3.6299,-4.0199,104.63,53.24,100.8199,51.029256,13.733618,135.27,4.14,2.63,3.2,3.51,3,6,5,31.04
140214,74903300,1392364146069.794,0.0196,0.0588,-9.9335,1.9428,0.7428,1.1428,3.56,-3.92,104.61,53.24,100.8199,51.029256,13.733618,135.27,4.14,2.63,3.2,3.51,3,6,5,31.04
140214,74903300,1392364146085.659,-0.1667,0.0,-9.6589,2.3428,1.5428,1.2,3.46,-3.78,104.58,53.24,100.8199,51.029256,13.733618,135.27,4.14,2.63,3.2,3.51,3,6,5,31.04
140214,74903300,1392364146097.024,-0.1274,-0.147,-9.6981,2.4,0.9714,1.0285,3.3799,-3.66,104.56,53.24,100.8199,51.029256,13.733618,135.27,4.14,2.63,3.2,3.51,3,6,5,31.04
140214,74903300,1392364146120.2468,-0.8629,-0.5687,-10.4728,0.8571,0.5714,1.3142,3.34,-3.59,104.53,53.32,100.66,51.029254,13.733639,135.27,4.14,2.63,3.2,3.53,3,7,5,31.04
140214,74903400,1392364146133.477,0.0,0.4118,-10.4434,0.5714,1.8285,1.3142,3.36,-3.58,104.5,53.32,100.66,51.029254,13.733639,135.27,4.14,2.63,3.2,3.53,3,7,5,31.04
140214,74903400,1392364146145.252,-0.9315,-0.0686,-9.8648,1.6571,0.7428,1.2571,3.36,-3.56,104.48,53.32,100.66,51.029254,13.733639,135.27,4.14,2.63,3.2,3.53,3,7,5,31.04
140214,74903400,1392364146154.605,-1.0884,-0.147,-10.1002,1.8857,0.8571,1.2,3.3799,-3.56,104.45,53.32,100.66,51.029254,13.733639,135.27,4.14,2.63,3.2,3.53,3,7,5,31.04
140214,74903400,1392364146165.676,-1.2159,-0.5589,-10.9239,1.2571,0.0571,1.3714,3.46,-3.59,104.43,53.32,100.66,51.029254,13.733639,135.27,4.14,2.63,3.2,3.53,3,7,5,31.04
140214,74903400,1392364146231.762,-0.755,-0.4314,-9.757,0.9714,1.3714,1.2571,3.5,-3.59,104.4,53.37,100.61,51.029251,13.73366,135.27,4.14,2.63,3.2,3.54,3,6,5,31.04
140214,74903500,1392364146247.494,-0.3235,-0.3628,-9.1784,0.9714,1.3714,1.3142,3.59,-3.65,104.38,53.37,100.61,51.029251,13.73366,135.27,4.14,2.63,3.2,3.54,3,6,5,31.04
140214,74903500,1392364146265.2358,-0.6766,-0.8237,-9.7962,0.9142,1.1428,1.2,3.61,-3.64,104.35,53.37,100.61,51.029251,13.73366,135.27,4.14,2.63,3.2,3.54,3,6,5,31.04
140214,74903500,1392364146274.068,-0.7452,-0.4804,-9.7177,-0.4,1.3142,1.3714,3.68,-3.68,104.33,53.37,100.61,51.029251,13.73366,135.27,4.14,2.63,3.2,3.54,3,6,5,31.04
140214,74903500,1392364146293.0042,0.2059,-0.3628,-9.3647,-0.6285,2.2285,1.0857,3.74,-3.75,104.31,53.37,100.61,51.029251,13.73366,135.27,4.14,2.63,3.2,3.54,3,6,5,31.04
140214,74903500,1392364146309.8708,0.2451,-0.5687,-10.3453,-0.4571,1.8857,1.1428,3.81,-3.83,104.29,53.41,100.58,51.029249,13.733681,135.28,4.14,2.63,3.19,3.56,3,7,5,31.04
140214,74903600,1392364146331.897,0.6275,-0.657,-9.2471,0.1142,2.4571,1.1428,3.87,-3.9,104.26,53.41,100.58,51.029249,13.733681,135.28,4.14,2.63,3.19,3.56,3,7,5,31.04
140214,74903600,1392364146353.046,0.9707,-0.3334,-9.7374,0.0571,1.7142,0.9714,3.8899,-3.95,104.24,53.41,100.58,51.029249,13.733681,135.28,4.14,2.63,3.19,3.56,3,7,5,31.04
140214,74903600,1392364146378.63,0.2549,-0.9119,-10.4042,-0.0571,1.0857,1.0857,3.8899,-3.98,104.22,53.41,100.58,51.029249,13.733681,135.28,4.14,2.63,3.19,3.56,3,7,5,31.14
140214,74903600,1392364146389.8262,1.0394,-0.5001,-10.1982,-0.4571,0.8571,1.0857,4.4199,-4.48,104.19,53.41,100.58,51.029249,13.733681,135.28,4.14,2.63,3.19,3.56,3,7,5,31.14
140214,74903600,1392364146414.51,0.6864,-0.1568,-9.6001,0.4,0.5714,0.6857,4.09,-4.2,104.14,53.43,100.52,51.029246,13.733702,135.27,2.56,2.38,0.95,3.57,3,7,5,31.14
140214,74903700,1392364146427.677,0.3726,-0.0392,-10.6787,-0.2285,-0.9714,0.8571,4.0399,-4.18,104.12,53.43,100.52,51.029246,13.733702,135.27,2.56,2.38,0.95,3.57,3,7,5,31.14
140214,74903700,1392364146445.209,0.3824,-0.5295,-9.9531,-1.0285,-0.8571,0.8,3.93,-4.11,104.09,53.43,100.52,51.029246,13.733702,135.27,2.56,2.38,0.95,3.57,3,7,5,31.14
140214,74903700,1392364146466.462,-0.2255,-0.7746,-9.8746,-1.1428,-1.1428,0.8,3.87,-3.96,104.05,53.43,100.52,51.029246,13.733702,135.27,2.56,2.38,0.95,3.57,3,7,5,31.14
140214,74903700,1392364146486.311,0.147,0.2353,-10.5513,-0.8,-0.4571,0.9142,3.8199,-3.95,104.02,53.43,100.52,51.029246,13.733702,135.27,2.56,2.38,0.95,3.57,3,7,5,31.14
140214,74903700,1392364146507.046,-0.2353,-0.1078,-10.8356,-0.6285,-0.8,0.7428,3.6899,-3.88,103.99,53.46,100.4599,51.029244,13.733723,135.28,2.56,2.38,0.95,3.6,3,7,5,31.14
140214,74903800,1392364146520.407,0.6668,0.2745,-8.8548,-0.5714,1.0857,0.8,3.5399,-3.78,103.9599,53.46,100.4599,51.029244,13.733723,135.28,2.56,2.38,0.95,3.6,3,7,5,31.14
140214,74903800,1392364146532.843,0.1863,0.4314,-9.2078,0.4571,1.1428,0.7428,3.4499,-3.76,103.94,53.46,100.4599,51.029244,13.733723,135.28,2.56,2.38,0.95,3.6,3,7,5,31.14
140214,74903800,1392364146545.188,0.5001,0.5197,-10.4336,0.8,1.3714,0.8,3.4,-3.75,103.92,53.46,100.4599,51.029244,13.733723,135.28,2.56,2.38,0.95,3.6,3,7,5,31.14
140214,74903800,1392364146555.2112,1.2845,0.8433,-8.5802,1.4857,2.8571,0.7428,3.3899,-3.75,103.9,53.46,100.4599,51.029244,13.733723,135.28,2.56,2.38,0.95,3.6,3,7,5,31.14
140214,74903800,1392364146578.1602,0.706,0.3137,-9.4922,1.0857,2.8,0.6857,3.3799,-3.74,103.88,53.48,100.41,51.029242,13.733744,135.28,2.56,2.38,0.95,3.62,3,7,5,31.14
140214,74903900,1392364146589.7788,0.0588,0.1274,-8.9529,0.1714,1.6571,0.6857,3.46,-3.83,103.86,53.48,100.41,51.029242,13.733744,135.28,2.56,2.38,0.95,3.62,3,7,5,31.14
140214,74903900,1392364146601.4258,0.402,0.8531,-9.453,0.8,2.6857,0.9142,3.52,-3.91,103.84,53.48,100.41,51.029242,13.733744,135.28,2.56,2.38,0.95,3.62,3,7,5,31.14
140214,74903900,1392364146614.738,-0.3334,0.5687,-9.3549,2.1142,2.6285,0.8,3.6399,-4.04,103.8199,53.48,100.41,51.029242,13.733744,135.28,2.56,2.38,0.95,3.62,3,7,5,31.14
140214,74903900,1392364146626.3179,-0.6668,0.4804,-9.1196,1.6,1.8285,1.0285,3.81,-4.19,103.8,53.48,100.41,51.029242,13.733744,135.28,2.56,2.38,0.95,3.62,3,7,5,31.14
140214,74903900,1392364146652.168,-0.3432,0.5687,-9.5216,1.5428,2.1714,0.7428,4.06,-4.42,103.78,53.5,100.34,51.029239,13.733766,135.27,2.56,2.38,0.95,3.64,3,7,5,31.14
140214,74904000,1392364146666.685,-0.451,0.4118,-9.9237,1.8857,2.5714,0.9714,4.2599,-4.58,103.77,53.5,100.34,51.029239,13.733766,135.27,2.56,2.38,0.95,3.64,3,7,5,31.14
140214,74904000,1392364146683.3179,-0.5491,0.3432,-8.6685,2.0571,3.5428,0.9714,4.5,-4.79,103.75,53.5,100.34,51.029239,13.733766,135.27,2.56,2.38,0.95,3.64,3,7,5,31.14
140214,74904000,1392364146696.295,-0.4314,-0.3922,-9.3255,1.2571,2.5714,1.0857,4.71,-4.93,103.73,53.5,100.34,51.029239,13.733766,135.27,2.56,2.38,0.95,3.64,3,7,5,31.14
140214,74904000,1392364146710.523,-0.0882,0.6373,-10.0021,1.0285,3.2571,1.0285,4.9,-5.1,103.7099,53.5,100.34,51.029239,13.733766,135.27,2.56,2.38,0.95,3.64,3,7,5,31.14
140214,74904000,1392364146729.83,-0.1568,0.9707,-10.1884,1.3714,2.2857,0.9714,5.09,-5.28,103.7,53.51,100.3199,51.029236,13.733787,135.26,2.56,2.38,0.95,3.67,3,7,5,31.14
140214,74904100,1392364146752.643,0.147,-0.0294,-10.0315,0.6285,1.9428,0.9142,5.21,-5.35,103.68,53.51,100.3199,51.029236,13.733787,135.26,2.56,2.38,0.95,3.67,3,7,5,31.14
140214,74904100,1392364146767.024,-0.7452,0.1274,-10.159,0.8,1.6571,0.9714,5.3,-5.41,103.67,53.51,100.3199,51.029236,13.733787,135.26,2.56,2.38,0.95,3.67,3,7,5,31.14
140214,74904100,1392364146783.31,-0.6766,0.0392,-9.8354,-0.0571,1.0857,1.0285,5.2899,-5.38,103.65,53.51,100.3199,51.029236,13.733787,135.26,2.56,2.38,0.95,3.67,3,7,5,31.14
140214,74904100,1392364146799.723,-0.1765,-0.1863,-10.3159,-0.9714,0.0,1.0857,5.28,-5.36,103.63,53.51,100.3199,51.029236,13.733787,135.26,2.56,2.38,0.95,3.67,3,7,5,31.14
140214,74904100,1392364146821.719,-0.2059,0.3824,-10.816,-0.2857,0.1142,1.0857,5.1599,-5.26,103.61,53.56,100.27,51.029234,13.733808,135.25,2.56,2.38,0.95,3.69,3,7,5,31.14
140214,74904200,1392364146835.935,-0.4118,0.4706,-10.2375,0.2857,0.4571,0.9714,5.1699,-5.29,103.59,53.56,100.27,51.029234,13.733808,135.25,2.56,2.38,0.95,3.69,3,7,5,31.14
140214,74904200,1392364146849.253,-1.108,0.6275,-10.2963,-0.1142,-0.7428,0.9142,5.11,-5.24,103.5699,53.56,100.27,51.029234,13.733808,135.25,2.56,2.38,0.95,3.69,3,7,5,31.14
140214,74904200,1392364146868.885,-0.1176,1.0394,-10.1002,1.1428,0.0571,0.8,5.0399,-5.17,103.56,53.56,100.27,51.029234,13.733808,135.25,2.56,2.38,0.95,3.69,3,7,5,31.14
140214,74904200,1392364146889.814,-0.5883,-0.804,-10.9337,1.9428,-0.9714,0.9142,4.84,-4.94,103.54,53.56,100.27,51.029234,13.733808,135.25,2.56,2.38,0.95,3.69,3,7,5,31.14
140214,74904200,1392364146912.472,-0.0098,0.5197,-10.0413,0.9142,-0.0571,0.8571,4.74,-4.82,103.53,53.53,100.19,51.029231,13.733829,135.25,2.56,2.38,0.95,3.71,3,7,5,31.14
140214,74904300,1392364146925.843,-0.3039,-0.7452,-10.1394,1.3714,0.3428,0.8571,4.56,-4.61,103.51,53.53,100.19,51.029231,13.733829,135.25,2.56,2.38,0.95,3.71,3,7,5,31.14
140214,74904300,1392364146935.2231,-0.147,-0.6177,-9.5216,0.8571,1.0857,0.7428,4.4,-4.43,103.49,53.53,100.19,51.029231,13.733829,135.25,2.56,2.38,0.95,3.71,3,7,5,31.14
140214,74904300,1392364146949.74,0.0392,0.0882,-8.4037,0.0,1.2,0.6857,4.2599,-4.3,103.47,53.53,100.19,51.029231,13.733829,135.25,2.56,2.38,0.95,3.71,3,7,5,31.14
140214,74904300,1392364146968.711,0.4903,0.1078,-9.3353,-0.3428,1.7714,0.6857,4.2299,-4.29,103.45,53.53,100.19,51.029231,13.733829,135.25,2.56,2.38,0.95,3.71,3,7,5,31.14
140214,74904300,1392364146999.7302,0.6079,-0.3137,-9.3843,0.6285,1.3714,0.7428,4.1999,-4.28,103.43,53.49,99.99,51.029229,13.73385,135.24,2.56,2.38,0.95,3.73,3,7,5,31.14
140214,74904400,1392364147015.842,-0.1568,-0.1078,-9.2961,0.9142,1.3142,0.6857,4.1699,-4.28,103.42,53.49,99.99,51.029229,13.73385,135.24,2.56,2.38,0.95,3.73,3,7,5,31.14
140214,74904400,1392364147027.055,-0.2647,0.098,-9.1098,1.3714,2.5142,0.8,4.21,-4.35,103.39,53.49,99.99,51.029229,13.73385,135.24,2.56,2.38,0.95,3.73,3,7,5,31.14
140214,74904400,1392364147041.021,-0.1667,0.6275,-10.6689,1.5428,2.1142,0.7428,4.3199,-4.45,103.38,53.49,99.99,51.029229,13.73385,135.24,2.56,2.38,0.95,3.73,3,7,5,31.14
140214,74904400,1392364147050.687,0.804,-0.0686,-10.0512,2.9142,2.5142,0.5714,4.53,-4.65,103.36,53.49,99.99,51.029229,13.73385,135.24,2.56,2.38,0.95,3.73,3,7,5,31.14
140214,74904400,1392364147068.9001,0.2647,0.4903,-10.9337,2.5714,1.3714,0.6285,4.7599,-4.86,103.34,53.47,99.83,51.029227,13.733872,135.23,2.56,2.38,0.95,3.75,3,7,5,31.14
140214,74904500,1392364147085.234,0.7844,-0.1765,-8.8744,2.1714,2.2285,0.6285,4.8499,-4.91,103.33,53.47,99.83,51.029227,13.733872,135.23,2.56,2.38,0.95,3.75,3,7,5,31.14
140214,74904500,1392364147096.584,0.353,-0.8237,-10.3649,0.9142,0.2285,0.6857,4.9199,-4.94,103.31,53.47,99.83,51.029227,13.733872,135.23,2.56,2.38,0.95,3.75,3,7,5,31.14
140214,74904500,1392364147112.7131,0.9904,-0.3824,-9.9923,1.0857,1.6571,0.7428,4.93,-4.97,103.29,53.47,99.83,51.029227,13.733872,135.23,2.56,2.38,0.95,3.75,3,7,5,31.14
140214,74904500,1392364147125.8618,1.8729,0.4118,-10.3159,0.5714,0.0,0.6285,4.81,-4.86,103.27,53.47,99.83,51.029227,13.733872,135.23,2.56,2.38,0.95,3.75,3,7,5,31.14
140214,74904500,1392364147140.898,1.2159,0.3922,-9.4628,1.7714,0.6857,0.6285,4.68,-4.7699,103.25,53.44,99.74,51.029225,13.733893,135.21,2.56,2.38,0.95,3.77,3,7,5,31.14
140214,74904600,1392364147152.7268,-1.8925,-0.2941,-7.835,1.9428,0.4,0.3428,4.4199,-4.5199,103.23,53.44,99.74,51.029225,13.733893,135.21,2.56,2.38,0.95,3.77,3,7,5,31.14
140214,74904600,1392364147185.158,-0.0882,-0.5491,-11.0023,0.2857,0.2285,0.7428,4.31,-4.4,103.22,53.44,99.74,51.029225,13.733893,135.21,2.56,2.38,0.95,3.77,3,7,5,31.14
140214,74904600,1392364147199.738,0.3039,0.0686,-10.3748,-0.6857,0.8,0.9714,4.28,-4.36,103.19,53.44,99.74,51.029225,13.733893,135.21,2.56,2.38,0.95,3.77,3,7,5,31.14
140214,74904600,1392364147213.6372,-0.5883,0.1667,-9.8354,-0.1714,1.1428,1.0285,4.24,-4.35,103.17,53.44,99.74,51.029225,13.733893,135.21,2.56,2.38,0.95,3.77,3,7,5,31.14
140214,74904600,1392364147228.4492,-0.1765,-1.1669,-9.0019,-1.0857,2.1142,0.7428,4.36,-4.5,103.15,53.42,99.6,51.029222,13.733914,135.2,2.56,2.38,0.95,3.78,3,7,5,31.14
140214,74904700,1392364147243.645,-1.5591,1.01,-11.2083,-2.5142,1.3714,1.0857,4.4199,-4.63,103.13,53.42,99.6,51.029222,13.733914,135.2,2.56,2.38,0.95,3.78,3,7,5,31.14
140214,74904700,1392364147256.5862,0.0,0.6766,-10.0413,-0.8571,2.5142,1.0285,4.65,-4.9,103.11,53.42,99.6,51.029222,13.733914,135.2,2.56,2.38,0.95,3.78,3,7,5,31.14
140214,74904700,1392364147267.0132,-0.8531,0.7354,-10.6297,-1.1428,1.7714,1.0857,4.8,-5.07,103.09,53.42,99.6,51.029222,13.733914,135.2,2.56,2.38,0.95,3.78,3,7,5,31.14
140214,74904700,1392364147286.349,-0.8531,1.4022,-10.4728,2.0,2.7428,0.8,5.06,-5.33,103.08,53.42,99.6,51.029222,13.733914,135.2,2.56,2.38,0.95,3.78,3,7,5,31.14
140214,74904700,1392364147325.0862,1.412,-1.1571,-9.551,0.6285,3.4857,0.8571,5.3799,-5.6,103.0699,53.42,99.5,51.02922,13.733936,135.2,2.56,2.38,0.95,3.81,3,7,5,31.14
140214,74904800,1392364147344.9731,0.9217,-1.8043,-8.8548,1.0857,3.2,0.6857,5.4399,-5.65,103.05,53.42,99.5,51.02922,13.733936,135.2,2.56,2.38,0.95,3.81,3,7,5,31.14
140214,74904800,1392364147378.77,-0.8727,-0.353,-9.1098,-1.1428,0.2857,0.9714,5.5099,-5.73,103.04,53.42,99.5,51.02922,13.733936,135.2,2.56,2.38,0.95,3.81,3,7,5,31.14
140214,74904800,1392364147386.741,0.8335,-0.5001,-10.2865,-1.1428,1.7142,0.9142,5.4699,-5.73,103.01,53.42,99.5,51.02922,13.733936,135.2,2.56,2.38,0.95,3.81,3,7,5,31.14
140214,74904800,1392364147435.146,0.4412,0.2157,-10.6395,-0.6285,0.5142,0.6285,5.46,-5.75,103.0,53.42,99.5,51.02922,13.733936,135.2,2.56,2.38,0.95,3.81,3,7,5,31.14
140214,74904800,1392364147481.5112,-0.1568,0.6177,-9.8158,-1.4857,0.8571,0.8571,5.36,-5.69,102.98,53.4,99.34,51.029218,13.733957,135.18,2.56,2.38,0.95,3.83,3,6,5,31.14
140214,74904900,1392364147500.095,-0.5491,0.5099,-10.3453,0.3428,-0.3428,0.8,5.31,-5.66,102.9599,53.4,99.34,51.029218,13.733957,135.18,2.56,2.38,0.95,3.83,3,6,5,31.14
140214,74904900,1392364147543.2588,-1.363,0.0882,-10.3453,0.1142,-0.9142,0.8571,5.1999,-5.5599,102.94,53.4,99.34,51.029218,13.733957,135.18,2.56,2.38,0.95,3.83,3,6,5,31.14
140214,74904900,1392364147566.243,-0.8139,0.1274,-9.9237,0.7428,0.5142,0.9714,5.15,-5.5199,102.92,53.4,99.34,51.029218,13.733957,135.18,2.56,2.38,0.95,3.83,3,6,5,31.14
140214,74904900,1392364147602.676,-1.1473,1.3924,-10.8651,-0.5142,0.0571,1.2,5.0999,-5.48,102.9,53.4,99.34,51.029218,13.733957,135.18,2.56,2.38,0.95,3.83,3,6,5,31.14
140214,74904900,1392364147647.325,0.0882,0.706,-10.2179,0.5714,1.7142,1.0857,5.12,-5.51,102.88,53.39,99.22,51.029216,13.733978,135.1699,2.56,2.38,0.95,3.85,3,7,5,31.14
140214,74905000,1392364147676.054,-0.8923,0.8335,-9.1686,0.0571,0.5714,1.0285,5.08,-5.47,102.86,53.39,99.22,51.029216,13.733978,135.1699,2.56,2.38,0.95,3.85,3,7,5,31.14
140214,74905000,1392364147693.2349,0.2255,-0.0882,-10.9141,2.6857,-0.2857,0.8,5.08,-5.45,102.84,53.39,99.22,51.029216,13.733978,135.1699,2.56,2.38,0.95,3.85,3,7,5,31.14
140214,74905000,1392364147703.206,0.1863,0.0588,-9.2176,0.0571,2.4571,0.9142,5.0699,-5.41,102.8199,53.39,99.22,51.029216,13.733978,135.1699,2.56,2.38,0.95,3.85,3,7,5,31.14
140214,74905000,1392364147717.183,-0.0196,-1.2453,-9.8158,3.2,0.9714,0.8,5.0099,-5.34,102.8,53.39,99.22,51.029216,13.733978,135.1699,2.56,2.38,0.95,3.85,3,7,5,31.14
140214,74905000,1392364147745.2432,0.4903,-0.1568,-8.9921,1.4857,2.8,1.0285,5.03,-5.36,102.77,53.28,99.03,51.029214,13.733999,135.16,2.56,2.38,0.95,3.87,3,7,5,31.14
140214,74905100,1392364147761.5408,-0.4314,-1.1178,-9.8354,2.7428,1.1428,0.7428,4.99,-5.32,102.75,53.28,99.03,51.029214,13.733999,135.16,2.56,2.38,0.95,3.87,3,7,5,31.14
140214,74905100,1392364147769.8071,-0.2255,0.7942,-9.8354,0.6857,0.6857,0.9142,5.0399,-5.37,102.74,53.28,99.03,51.029214,13.733999,135.16,2.56,2.38,0.95,3.87,3,7,5,31.14
140214,74905100,1392364147792.219,-0.0588,-0.7844,-11.022,2.2857,0.3428,0.6285,4.99,-5.3099,102.72,53.28,99.03,51.029214,13.733999,135.16,2.56,2.38,0.95,3.87,3,7,5,31.14
140214,74905100,1392364147804.6948,0.2157,-0.5197,-9.2863,2.0571,0.6857,0.7428,5.0,-5.3099,102.7,53.28,99.03,51.029214,13.733999,135.16,2.56,2.38,0.95,3.87,3,7,5,31.14
140214,74905100,1392364147829.9302,-0.0686,0.147,-10.3061,0.8,0.3428,1.0285,4.9799,-5.29,102.68,53.31,98.99,51.029212,13.73402,135.16,4.14,2.63,3.2,3.88,3,6,5,31.14
140214,74905200,1392364147852.711,0.5785,0.1078,-9.9335,0.9714,0.5142,0.8,4.9399,-5.25,102.66,53.31,98.99,51.029212,13.73402,135.16,4.14,2.63,3.2,3.88,3,6,5,31.14
140214,74905200,1392364147862.8271,0.4706,0.2843,-10.2767,0.4,0.9714,0.7428,4.93,-5.24,102.63,53.31,98.99,51.029212,13.73402,135.16,4.14,2.63,3.2,3.88,3,6,5,31.14
140214,74905200,1392364147873.258,0.4804,0.3137,-9.0019,0.7428,1.0285,0.7428,4.93,-5.26,102.61,53.31,98.99,51.029212,13.73402,135.16,4.14,2.63,3.2,3.88,3,6,5,31.14
140214,74905200,1392364147885.287,1.4807,0.2059,-9.3843,1.3142,0.9714,0.5714,4.8899,-5.24,102.6,53.31,98.99,51.029212,13.73402,135.16,4.14,2.63,3.2,3.88,3,6,5,31.14
140214,74905200,1392364147903.929,0.4118,0.4314,-11.6593,0.7428,-0.1714,0.6857,4.7599,-5.13,102.5699,53.28,98.83,51.02921,13.734042,135.15,2.56,2.38,0.95,3.9,3,7,5,31.14
140214,74905300,1392364147920.8528,0.9511,0.0686,-9.6295,2.1714,0.9142,0.6857,4.6699,-5.05,102.55,53.28,98.83,51.02921,13.734042,135.15,2.56,2.38,0.95,3.9,3,7,5,31.14
140214,74905300,1392364147930.778,0.7158,-0.1961,-9.9923,1.8857,0.4571,0.5714,4.5,-4.88,102.53,53.28,98.83,51.02921,13.734042,135.15,2.56,2.38,0.95,3.9,3,7,5,31.14
140214,74905300,1392364147945.24,0.0784,-0.3235,-10.3551,1.2571,0.2857,0.8,4.3,-4.69,102.51,53.28,98.83,51.02921,13.734042,135.15,2.56,2.38,0.95,3.9,3,7,5,31.14
140214,74905300,1392364147954.551,-0.1176,-0.353,-10.4728,0.8,-0.4,0.7428,4.1299,-4.53,102.49,53.28,98.83,51.02921,13.734042,135.15,2.56,2.38,0.95,3.9,3,7,5,31.14
140214,74905300,1392364147973.311,0.1765,0.402,-10.7376,-0.0571,-0.2857,0.8,4.03,-4.45,102.47,53.26,98.68,51.029208,13.734064,135.13,2.56,2.38,0.95,3.91,3,7,5,31.14
140214,74905400,1392364147985.209,-0.4314,0.4314,-10.3944,0.7428,0.0,0.6857,3.9099,-4.36,102.45,53.26,98.68,51.029208,13.734064,135.13,2.56,2.38,0.95,3.91,3,7,5,31.14
140214,74905400,1392364148000.8618,-0.1274,0.0882,-9.4138,0.5142,-0.6285,0.6857,3.8499,-4.3099,102.43,53.26,98.68,51.029208,13.734064,135.13,2.56,2.38,0.95,3.91,3,7,5,31.14
140214,74905400,1392364148014.783,-0.7746,0.6766,-10.5905,-0.3428,-0.6285,0.8571,3.7199,-4.19,102.41,53.26,98.68,51.029208,13.734064,135.13,2.56,2.38,0.95,3.91,3,7,5,31.14
140214,74905400,1392364148025.838,-0.2549,0.5883,-9.8158,0.2285,0.4571,0.9714,3.6699,-4.16,102.39,53.26,98.68,51.029208,13.734064,135.13,2.56,2.38,0.95,3.91,3,7,5,31.14
140214,74905400,1392364148045.296,-0.9315,0.6766,-10.5807,0.1142,0.8571,0.9714,3.61,-4.11,102.36,53.25,98.63,51.029206,13.734085,135.12,2.56,2.38,0.95,3.92,3,7,5,31.14
140214,74905500,1392364148065.376,-0.3824,0.402,-10.0021,0.4571,2.0,0.9142,3.71,-4.21,102.34,53.25,98.63,51.029206,13.734085,135.12,2.56,2.38,0.95,3.92,3,7,5,31.14
140214,74905500,1392364148074.616,-0.4216,0.5393,-9.4138,0.8571,2.4571,1.1428,3.8199,-4.32,102.3199,53.25,98.63,51.029206,13.734085,135.12,2.56,2.38,0.95,3.92,3,7,5,31.14
140214,74905500,1392364148089.8499,0.0882,1.1865,-9.7079,0.7428,2.6285,0.8,3.9499,-4.42,102.3,53.25,98.63,51.029206,13.734085,135.12,2.56,2.38,0.95,3.92,3,7,5,31.14
140214,74905500,1392364148103.7012,-0.3726,0.2353,-10.1002,2.0571,2.6857,0.8571,4.0399,-4.49,102.28,53.25,98.63,51.029206,13.734085,135.12,2.56,2.38,0.95,3.92,3,7,5,31.14
140214,74905500,1392364148126.075,-0.3137,-0.098,-9.2471,1.7142,2.0,0.9714,4.1999,-4.6,102.27,53.23,98.48,51.029204,13.734107,135.1,2.56,2.38,0.95,3.93,3,7,5,31.14
140214,74905600,1392364148145.2861,-0.5393,-0.0098,-10.0413,1.3142,1.0285,1.0857,4.28,-4.64,102.25,53.23,98.48,51.029204,13.734107,135.1,2.56,2.38,0.95,3.93,3,7,5,31.14
140214,74905600,1392364148154.968,-0.1372,0.0882,-9.3647,2.1714,2.6285,0.9142,4.2899,-4.63,102.23,53.23,98.48,51.029204,13.734107,135.1,2.56,2.38,0.95,3.93,3,7,5,31.14
140214,74905600,1392364148173.313,-1.2159,-0.1176,-8.6195,1.6,1.1428,1.0285,4.37,-4.66,102.2099,53.23,98.48,51.029204,13.734107,135.1,2.56,2.38,0.95,3.93,3,7,5,31.3
140214,74905600,1392364148185.2988,-1.1375,-0.1372,-9.757,1.3714,1.7142,1.0285,4.3899,-4.66,102.19,53.23,98.48,51.029204,13.734107,135.1,2.56,2.38,0.95,3.93,3,7,5,31.3
140214,74905600,1392364148205.7878,-0.8531,-0.402,-9.5216,0.5714,2.0571,1.2,4.56,-4.79,102.18,53.23,98.41,51.029202,13.734128,135.1,2.56,2.38,0.95,3.95,3,6,5,31.3
140214,74905700,1392364148220.0,-1.0394,0.4314,-9.9237,0.3428,0.9142,0.9714,4.6999,-4.92,102.16,53.23,98.41,51.029202,13.734128,135.1,2.56,2.38,0.95,3.95,3,6,5,31.3
140214,74905700,1392364148232.982,-0.657,0.4118,-8.5116,0.8571,2.2857,1.0285,4.8799,-5.09,102.14,53.23,98.41,51.029202,13.734128,135.1,2.56,2.38,0.95,3.95,3,6,5,31.3
140214,74905700,1392364148248.5508,-0.2843,-0.3824,-9.453,1.2,3.0857,0.9714,5.06,-5.24,102.12,53.23,98.41,51.029202,13.734128,135.1,2.56,2.38,0.95,3.95,3,6,5,31.3
140214,74905700,1392364148265.237,0.1274,-0.353,-9.4138,1.0285,3.3142,1.0285,5.34,-5.47,102.11,53.23,98.41,51.029202,13.734128,135.1,2.56,2.38,0.95,3.95,3,6,5,31.3
140214,74905700,1392364148286.7688,-0.2647,0.2255,-9.453,1.6,3.3714,1.0285,5.55,-5.66,102.09,53.21,98.42,51.0292,13.734149,135.1,2.56,2.38,0.95,3.97,3,6,5,31.3
140214,74905800,1392364148303.8782,0.0588,-0.2647,-8.9921,1.6571,3.5428,0.8571,5.8,-5.88,102.08,53.21,98.42,51.0292,13.734149,135.1,2.56,2.38,0.95,3.97,3,6,5,31.3
140214,74905800,1392364148316.7852,0.8237,-0.6668,-9.4236,0.9142,4.2857,0.8571,6.12,-6.17,102.06,53.21,98.42,51.0292,13.734149,135.1,2.56,2.38,0.95,3.97,3,6,5,31.3
140214,74905800,1392364148329.8308,0.5785,-0.1568,-8.2174,0.6857,2.9714,0.8571,6.34,-6.36,102.05,53.21,98.42,51.0292,13.734149,135.1,2.56,2.38,0.95,3.97,3,6,5,31.3
140214,74905800,1392364148345.236,0.6962,-0.5785,-9.5314,0.5714,1.7142,0.9142,6.4799,-6.49,102.03,53.21,98.42,51.0292,13.734149,135.1,2.56,2.38,0.95,3.97,3,6,5,31.3
140214,74905800,1392364148367.896,0.6766,0.4216,-10.3355,1.0857,1.8285,0.6857,6.4799,-6.51,102.02,53.2,98.41,51.029198,13.734171,135.09,2.56,2.38,0.95,3.99,3,6,5,31.3
140214,74905900,1392364148392.4602,-0.3824,-0.0686,-9.6393,1.7714,0.4,0.5142,6.4699,-6.51,102.0,53.2,98.41,51.029198,13.734171,135.09,2.56,2.38,0.95,3.99,3,6,5,31.3
140214,74905900,1392364148405.864,0.0,-0.3334,-10.7866,0.9142,0.4571,0.6285,6.4799,-6.5199,101.98,53.2,98.41,51.029198,13.734171,135.09,2.56,2.38,0.95,3.99,3,6,5,31.3
140214,74905900,1392364148421.375,0.4412,-0.3628,-9.9531,1.3714,0.8571,0.5714,6.4799,-6.53,101.97,53.2,98.41,51.029198,13.734171,135.09,2.56,2.38,0.95,3.99,3,6,5,31.3
140214,74905900,1392364148432.626,0.0196,0.1863,-10.0217,1.4285,1.6571,0.6285,6.4399,-6.5,101.95,53.2,98.41,51.029198,13.734171,135.09,2.56,2.38,0.95,3.99,3,6,5,31.3
140214,74905900,1392364148454.193,0.7942,-0.1274,-9.9531,1.3714,1.3142,0.8,6.4799,-6.55,101.93,53.19,98.4,51.029196,13.734192,135.09,2.56,2.38,0.95,4.01,3,6,5,31.3
140214,74906000,1392364148469.893,0.5295,0.2451,-11.3063,1.3142,0.9142,0.6285,6.43,-6.5199,101.91,53.19,98.4,51.029196,13.734192,135.09,2.56,2.38,0.95,4.01,3,6,5,31.3
140214,74906000,1392364148485.2432,1.0394,-0.5099,-8.3351,1.4857,2.0571,0.5714,6.4699,-6.57,101.89,53.19,98.4,51.029196,13.734192,135.09,2.56,2.38,0.95,4.01,3,6,5,31.3
140214,74906000,1392364148494.511,0.6373,0.0588,-10.4826,0.8,1.4285,0.8571,6.34,-6.45,101.87,53.19,98.4,51.029196,13.734192,135.09,2.56,2.38,0.95,4.01,3,6,5,31.3
140214,74906000,1392364148506.82,1.4022,1.1669,-11.7084,0.8571,0.9714,0.8,6.3199,-6.45,101.85,53.19,98.4,51.029196,13.734192,135.09,2.56,2.38,0.95,4.01,3,6,5,31.3
140214,74906000,1392364148535.821,0.6766,0.2843,-9.3255,0.9142,1.0285,0.6285,6.3499,-6.49,101.83,53.18,98.36,51.029194,13.734213,135.08,2.56,2.38,0.95,4.02,3,6,5,31.3
140214,74906100,1392364148545.25,-0.2255,0.0686,-10.1492,0.0571,-0.1142,0.8571,6.2599,-6.41,101.8,53.18,98.36,51.029194,13.734213,135.08,2.56,2.38,0.95,4.02,3,6,5,31.3
140214,74906100,1392364148556.518,-0.2647,-0.5589,-10.5905,0.4,-0.9142,0.8571,6.2299,-6.37,101.78,53.18,98.36,51.029194,13.734213,135.08,2.56,2.38,0.95,4.02,3,6,5,31.3
140214,74906100,1392364148570.0159,0.4216,0.7746,-10.3257,-0.0571,0.8,0.8,6.1699,-6.34,101.76,53.18,98.36,51.029194,13.734213,135.08,2.56,2.38,0.95,4.02,3,6,5,31.3
140214,74906100,1392364148586.478,-0.5981,0.4412,-10.9533,0.4,-0.4571,1.0285,6.1299,-6.32,101.74,53.18,98.36,51.029194,13.734213,135.08,2.56,2.38,0.95,4.02,3,6,5,31.3
140214,74906100,1392364148605.937,-1.01,0.3824,-11.424,0.9142,-0.5142,0.6285,6.0999,-6.3099,101.72,53.16,98.23,51.029192,13.734235,135.08,2.56,2.38,0.95,4.03,3,6,5,31.3
140214,74906200,1392364148626.737,-0.2059,-0.6275,-9.3451,-1.0285,-0.0571,0.9142,6.12,-6.3,101.7,53.16,98.23,51.029192,13.734235,135.08,2.56,2.38,0.95,4.03,3,6,5,31.3
140214,74906200,1392364148645.25,-0.147,0.049,-10.4728,0.1142,0.0571,0.8571,5.9799,-6.2,101.68,53.16,98.23,51.029192,13.734235,135.08,2.56,2.38,0.95,4.03,3,6,5,31.3
140214,74906200,1392364148654.6172,-0.804,-0.0392,-9.7766,-0.9714,-0.1142,0.8571,5.9,-6.13,101.66,53.16,98.23,51.029192,13.734235,135.08,2.56,2.38,0.95,4.03,3,6,5,31.3
140214,74906200,1392364148669.992,0.2549,0.147,-10.8945,-1.6571,0.3428,1.0285,5.8899,-6.14,101.64,53.16,98.23,51.029192,13.734235,135.08,2.56,2.38,0.95,4.03,3,6,5,31.3
140214,74906200,1392364148693.845,-0.1274,0.5785,-11.0416,-0.4571,0.0,0.8571,5.7899,-6.1,101.62,53.15,98.0699,51.02919,13.734258,135.07,4.14,2.63,3.2,4.02,3,6,5,31.3
140214,74906300,1392364148726.655,-0.402,0.8335,-9.0117,-0.8,-0.3428,0.8571,5.65,-5.99,101.6,53.15,98.0699,51.02919,13.734258,135.07,4.14,2.63,3.2,4.02,3,6,5,31.3
140214,74906300,1392364148746.909,-0.1568,0.7746,-10.0806,0.2285,-0.3428,0.8,5.49,-5.85,101.58,53.15,98.0699,51.02919,13.734258,135.07,4.14,2.63,3.2,4.02,3,6,5,31.3
140214,74906300,1392364148765.312,-0.8629,0.3432,-10.9239,0.3428,-0.4571,0.9714,5.2899,-5.65,101.56,53.15,98.0699,51.02919,13.734258,135.07,4.14,2.63,3.2,4.02,3,6,5,31.3
140214,74906300,1392364148784.899,-0.7256,0.098,-10.8749,0.8,-0.1714,1.0285,5.1599,-5.5199,101.54,53.15,98.0699,51.02919,13.734258,135.07,4.14,2.63,3.2,4.02,3,6,5,31.3
140214,74906300,1392364148805.244,-0.147,0.4804,-9.9335,0.5714,0.0,1.0857,5.0,-5.37,101.52,53.15,97.98,51.029188,13.73428,135.06,4.14,2.63,3.19,4.01,3,6,5,31.3
140214,74906400,1392364148819.387,-0.3432,0.098,-9.9727,1.5428,0.8571,0.8571,4.81,-5.18,101.49,53.15,97.98,51.029188,13.73428,135.06,4.14,2.63,3.19,4.01,3,6,5,31.3
140214,74906400,1392364148830.7458,-0.7648,0.0588,-9.855,0.2285,-0.5142,0.9714,4.7599,-5.11,101.48,53.15,97.98,51.029188,13.73428,135.06,4.14,2.63,3.19,4.01,3,6,5,31.3
140214,74906400,1392364148845.254,-0.9904,-0.4412,-10.5611,1.0285,-0.4,1.1428,4.58,-4.94,101.45,53.15,97.98,51.029188,13.73428,135.06,4.14,2.63,3.19,4.01,3,6,5,31.3
140214,74906400,1392364148855.057,-0.8531,0.147,-10.7082,0.6285,-0.8,1.0285,4.56,-4.91,101.43,53.15,97.98,51.029188,13.73428,135.06,4.14,2.63,3.19,4.01,3,6,5,31.3
140214,74906400,1392364148873.392,-0.8335,-0.0784,-10.5415,1.2,-0.6857,0.9142,4.5,-4.86,101.41,53.16,97.88,51.029187,13.734303,135.04,4.14,2.63,3.2,4.0,3,6,5,31.3
140214,74906500,1392364148892.524,0.4118,0.8433,-9.3843,1.0285,0.5142,0.9714,4.4499,-4.79,101.39,53.16,97.88,51.029187,13.734303,135.04,4.14,2.63,3.2,4.0,3,6,5,31.3
140214,74906500,1392364148907.785,-0.6275,-0.6275,-10.0904,1.7714,0.1714,1.0285,4.3,-4.62,101.37,53.16,97.88,51.029187,13.734303,135.04,4.14,2.63,3.2,4.0,3,6,5,31.3
140214,74906500,1392364148925.273,-0.4412,0.2059,-9.9335,1.7142,1.0857,1.1428,4.25,-4.57,101.35,53.16,97.88,51.029187,13.734303,135.04,4.14,2.63,3.2,4.0,3,6,5,31.3
140214,74906500,1392364148945.201,0.2255,-0.0392,-9.8943,2.1714,1.8285,0.9714,4.2199,-4.5199,101.3199,53.16,97.88,51.029187,13.734303,135.04,4.14,2.63,3.2,4.0,3,6,5,31.3
