loggingTime,loggingSample,identifierForVendor,locationTimestamp_since1970,locationLatitude,locationLongitude,locationAltitude,locationSpeed,locationCourse,locationVerticalAccuracy,locationHorizontalAccuracy,locationFloor,locationHeadingTimestamp_since1970,locationHeadingX,locationHeadingY,locationHeadingZ,locationTrueHeading,locationMagneticHeading,locationHeadingAccuracy,accelerometerTimestamp_sinceReboot,accelerometerAccelerationX,accelerometerAccelerationY,accelerometerAccelerationZ,gyroTimestamp_sinceReboot,gyroRotationX,gyroRotationY,gyroRotationZ,motionTimestamp_sinceReboot,motionYaw,motionRoll,motionPitch,motionRotationRateX,motionRotationRateY,motionRotationRateZ,motionUserAccelerationX,motionUserAccelerationY,motionUserAccelerationZ,motionAttitudeReferenceFrame,motionQuaternionX,motionQuaternionY,motionQuaternionZ,motionQuaternionW,motionGravityX,motionGravityY,motionGravityZ,motionMagneticFieldX,motionMagneticFieldY,motionMagneticFieldZ,motionMagneticFieldCalibrationAccuracy,activityTimestamp_sinceReboot,activity,activityActivityConfidence,activityActivityStartDate,pedometerStartDate,pedometerNumberofSteps,pedometerDistance,pedometerFloorAscended,pedometerFloorDescended,pedometerEndDate,IP_en0,IP_pdp_ip0,deviceOrientation,state
2016-09-12 11:12:06.642,1,6B5B5B79-A063-42A5-9845-86B7C35C751C,1473671526.556717,51.03077838609382,13.72952415748742,132.1004,-1,-1,15.84414004235132,65,-9999,1473671526.601331,-22.15826416015625,-45.11131286621094,2.879203796386719,107.990608215332,104.3704528808594,15,260886.0241580417,-0.0232391357421875,-0.9856719970703125,-0.137908935546875,260886.013824875,-0.202530737739436,-0.1112005576323676,0.02904763064171227,,,,,,,,,,,,,,,,,,,,,,,260882.930858,unknown,2,2016-09-12 11:12:03.515,,,,,,,192.168.137.203,10.56.9.191,1,0
2016-09-12 11:12:06.643,2,6B5B5B79-A063-42A5-9845-86B7C35C751C,,,,,,,,,,,,,,,,,260886.0437500417,-0.028228759765625,-0.977203369140625,-0.0731964111328125,260886.033813875,0.137294476309073,-0.03284769520114633,0.009030512940349688,,,,,,,,,,,,,,,,,,,,,,,,,,,,,,,,,192.168.137.203,10.56.9.191,1,0
2016-09-12 11:12:06.657,3,6B5B5B79-A063-42A5-9845-86B7C35C751C,,,,,,,,,,1473671526.646463,-21.77996826171875,-44.88932800292969,2.281669616699219,108.1438827514648,104.5237274169922,15,260886.0633730417,-0.0255889892578125,-0.9799041748046875,-0.050140380859375,260886.053802875,0.1984236107063158,0.06320000846088841,-0.04921681484131837,,,,,,,,,,,,,,,,,,,,,,,,,,,,,,,,,192.168.137.203,10.56.9.191,1,0
2016-09-12 11:12:06.676,4,6B5B5B79-A063-42A5-9845-86B7C35C751C,,,,,,,,,,,,,,,,,260886.0829950417,-0.0025787353515625,-0.9973297119140625,-0.0478057861328125,,,,,,,,,,,,,,,,,,,,,,,,,,,,,,,,,,,,,192.168.137.203,10.56.9.191,1,0
2016-09-12 11:12:06.705,5,6B5B5B79-A063-42A5-9845-86B7C35C751C,,,,,,,,,,1473671526.677939,-21.85385131835938,-44.6627197265625,2.803886413574219,108.1576766967773,104.5375213623047,15,260886.1026180417,0.006072998046875,-0.99884033203125,-0.05029296875,260886.093811875,0.0556137277796887,-0.08636604783516069,-0.03221519444225251,,,,,,,,,,,,,,,,,,,,,,,,,,,,,,,,,192.168.137.203,10.56.9.191,1,0
2016-09-12 11:12:06.715,6,6B5B5B79-A063-42A5-9845-86B7C35C751C,,,,,,,,,,,,,,,,,260886.1222410417,0.000640869140625,-1.006912231445312,-0.014251708984375,260886.113830875,-0.05113908451613756,-0.1836941993493055,0.004221376643884601,,,,,,,,,,,,,,,,,,,,,,,,,,,,,,,,,192.168.137.203,10.56.9.191,1,0
2016-09-12 11:12:06.734,7,6B5B5B79-A063-42A5-9845-86B7C35C751C,,,,,,,,,,1473671526.721496,-22.60639953613281,-44.88417053222656,3.022117614746094,108.5000076293945,104.8798522949219,15,260886.1418330417,-0.00750732421875,-0.993316650390625,-0.03399658203125,,,,,,,,,,,,,,,,,,,,,,,,,,,,,,,,,,,,,192.168.137.203,10.56.9.191,1,0
2016-09-12 11:12:06.754,8,6B5B5B79-A063-42A5-9845-86B7C35C751C,,,,,,,,,,1473671526.751438,-21.70585632324219,-44.88850402832031,2.732505798339844,108.5915908813477,104.971435546875,15,260886.1614560417,0.01416015625,-1.015777587890625,-0.0287017822265625,260886.153839875,0.07147285207111057,-0.02461320111062133,-0.01728844284846739,,,,,,,,,,,,,,,,,,,,,,,,,,,,,,,,,192.168.137.203,10.56.9.191,1,0
2016-09-12 11:12:06.773,9,6B5B5B79-A063-42A5-9845-86B7C35C751C,,,,,,,,,,,,,,,,,260886.1810790417,0.0250091552734375,-1.009628295898438,-0.02447509765625,260886.173828875,0.03072542212846219,-0.01997184396283123,0.0206429605575312,,,,,,,,,,,,,,,,,,,,,,,,,,,,,,,,,192.168.137.203,10.56.9.191,1,0
2016-09-12 11:12:06.793,10,6B5B5B79-A063-42A5-9845-86B7C35C751C,,,,,,,,,,,,,,,,,260886.2007020417,0.01007080078125,-1.000030517578125,-0.02984619140625,,,,,,,,,,,,,,,,,,,,,,,,,,,,,,,,,,,,,192.168.137.203,10.56.9.191,1,0
2016-09-12 11:12:06.813,11,6B5B5B79-A063-42A5-9845-86B7C35C751C,,,,,,,,,,1473671526.796464,-21.85829162597656,-45.11250305175781,2.882652282714844,108.6290512084961,105.0088958740234,15,260886.2203240417,0.0080413818359375,-1.00238037109375,-0.0536346435546875,260886.213836875,-0.06651670928247311,-0.07047070455291375,0.06664826944032301,,,,,,,,,,,,,,,,,,,,,,,,,,,,,,,,,192.168.137.203,10.56.9.191,1,0
2016-09-12 11:12:06.832,12,6B5B5B79-A063-42A5-9845-86B7C35C751C,,,,,,,,,,1473671526.826666,-22.90866088867188,-45.10777282714844,3.095542907714844,108.6293106079102,105.0091552734375,15,260886.2399470417,0.0022430419921875,-1.00140380859375,-0.0527801513671875,260886.233856875,-0.08789124019144906,-0.1128442606571645,0.07719705051812688,,,,,,,,,,,,,,,,,,,,,,,,,,,,,,,,,192.168.137.203,10.56.9.191,1,0
2016-09-12 11:12:06.852,13,6B5B5B79-A063-42A5-9845-86B7C35C751C,,,,,,,,,,,,,,,,,260886.2595700417,0.001495361328125,-1.004592895507812,-0.0535736083984375,,,,,,,,,,,,,,,,,,,,,,,,,,,,,,,,,,,,,192.168.137.203,10.56.9.191,1,0
2016-09-12 11:12:06.871,14,6B5B5B79-A063-42A5-9845-86B7C35C751C,,,,,,,,,,,,,,,,,260886.2791620417,-0.0039825439453125,-1.002548217773438,-0.054290771484375,260886.273864875,0.007053648463183871,-0.03875059175730696,0.05349172102311357,,,,,,,,,,,,,,,,,,,,,,,,,,,,,,,,,192.168.137.203,10.56.9.191,1,0
2016-09-12 11:12:06.891,15,6B5B5B79-A063-42A5-9845-86B7C35C751C,,,,,,,,,,1473671526.871608,-22.23612976074219,-45.33505249023438,3.255210876464844,108.6961135864258,105.0759582519531,15,260886.2987850417,0.02130126953125,-1.009780883789062,-0.0535888671875,260886.293853875,0.06149079167327556,0.002484462980934921,0.03583842510530531,,,,,,,,,,,,,,,,,,,,,,,,,,,,,,,,,192.168.137.203,10.56.9.191,1,0
2016-09-12 11:12:06.911,16,6B5B5B79-A063-42A5-9845-86B7C35C751C,,,,,,,,,,1473671526.901505,-21.85615539550781,-44.88752746582031,2.880775451660156,108.6598892211914,105.0397338867188,15,260886.3184080417,0.026336669921875,-1.040802001953125,-0.0510711669921875,,,,,,,,,,,,,,,,,,,,,,,,,,,,,,,,,,,,,192.168.137.203,10.56.9.191,1,0
2016-09-12 11:12:06.930,17,6B5B5B79-A063-42A5-9845-86B7C35C751C,,,,,,,,,,,,,,,,,260886.3380310417,0.0134429931640625,-1.017562866210938,-0.0532379150390625,260886.313873875,0.002571015716362497,-0.07561726335949187,0.08339822111637639,,,,,,,,,,,,,,,,,,,,,,,,,,,,,,,,,192.168.137.203,10.56.9.191,1,0
2016-09-12 11:12:06.950,18,6B5B5B79-A063-42A5-9845-86B7C35C751C,,,,,,,,,,1473671526.946489,-21.48161315917969,-44.88844299316406,3.110084533691406,108.691032409668,105.0708770751953,15,260886.3576540417,-0.003631591796875,-0.9966278076171875,-0.050140380859375,260886.353881875,-0.05728566031204044,-0.1422109379974683,0.1138573271358306,,,,,,,,,,,,,,,,,,,,,,,,,,,,,,,,,192.168.137.203,10.56.9.191,1,0
2016-09-12 11:12:06.970,19,6B5B5B79-A063-42A5-9845-86B7C35C751C,,,,,,,,,,,,,,,,,260886.3772760417,-0.0187225341796875,-0.985992431640625,-0.042144775390625,,,,,,,,,,,,,,,,,,,,,,,,,,,,,,,,,,,,,192.168.137.203,10.56.9.191,1,0
2016-09-12 11:12:06.989,20,6B5B5B79-A063-42A5-9845-86B7C35C751C,,,,,,,,,,1473671526.97664,-22.45671081542969,-44.88438415527344,3.173835754394531,108.7200241088867,105.0998687744141,15,260886.3968990417,-0.0193634033203125,-0.978546142578125,-0.0495758056640625,260886.373870875,0.0229047832713355,-0.06195231749018629,0.06971889417718438,,,,,,,,,,,,,,,,,,,,,,,,,,,,,,,,,192.168.137.203,10.56.9.191,1,0
2016-09-12 11:12:07.009,21,6B5B5B79-A063-42A5-9845-86B7C35C751C,,,,,,,,,,,,,,,,,260886.4165220417,-0.01513671875,-0.980010986328125,-0.0519256591796875,260886.413879875,0.0831129965636289,-0.002211488969201799,-0.007629423890859002,,,,,,,,,,,,,,,,,,,,,,,,,,,,,,,,,192.168.137.203,10.56.9.191,1,0
2016-09-12 11:12:07.028,22,6B5B5B79-A063-42A5-9845-86B7C35C751C,,,,,,,,,,1473671527.021486,-23.05783081054688,-44.95643615722656,3.392539978027344,108.668327331543,105.0481719970703,15,260886.4361450417,-0.009796142578125,-0.98822021484375,-0.04278564453125,,,,,,,,,,,,,,,,,,,,,,,,,,,,,,,,,,,,,192.168.137.203,10.56.9.191,1,0
2016-09-12 11:12:07.048,23,6B5B5B79-A063-42A5-9845-86B7C35C751C,,,,,,,,,,,,,,,,,260886.4557370417,-0.0155181884765625,-0.995361328125,-0.0107421875,260886.433899875,0.06078558661662258,-0.06066894016087711,-0.01197303962877824,,,,,,,,,,,,,,,,,,,,,,,,,,,,,,,,,192.168.137.203,10.56.9.191,1,0
2016-09-12 11:12:07.068,24,6B5B5B79-A063-42A5-9845-86B7C35C751C,1473671526.999933,51.0309549328415,13.72922848911372,167.9832,0,-1,24,30,-9999,1473671527.051513,-22.08247375488281,-44.88494873046875,3.553153991699219,108.769416809082,105.1492614746094,15,260886.4753600417,-0.00634765625,-0.9900970458984375,-0.0096588134765625,260886.473907875,0.01278477112903439,0.01698217932310828,-0.0009755159072960249,,,,,,,,,,,,,,,,,,,,,,,,,,,,,,,,,192.168.137.203,10.56.9.191,1,0
2016-09-12 11:12:07.087,25,6B5B5B79-A063-42A5-9845-86B7C35C751C,,,,,,,,,,,,,,,,,260886.4949830417,-0.005340576171875,-0.991790771484375,-0.0333709716796875,,,,,,,,,,,,,,,,,,,,,,,,,,,,,,,,,,,,,192.168.137.203,10.56.9.191,1,0
2016-09-12 11:12:07.107,26,6B5B5B79-A063-42A5-9845-86B7C35C751C,,,,,,,,,,1473671527.096508,-22.68341064453125,-45.03309631347656,3.322502136230469,108.811897277832,105.1917419433594,15,260886.5146060417,-0.0116729736328125,-0.9859619140625,-0.0425567626953125,260886.493896875,0.01279276061230463,0.03290229000349296,-0.002085521449641051,,,,,,,,,,,,,,,,,,,,,,,,,,,,,,,,,192.168.137.203,10.56.9.191,1,0
2016-09-12 11:12:07.127,27,6B5B5B79-A063-42A5-9845-86B7C35C751C,,,,,,,,,,,,,,,,,260886.5342280417,-0.02392578125,-0.983642578125,-0.0306243896484375,260886.533905875,-0.005331648502338635,-0.01698217932310828,0.00105567705610741,,,,,,,,,,,,,,,,,,,,,,,,,,,,,,,,,192.168.137.203,10.56.9.191,1,0
2016-09-12 11:12:07.147,28,6B5B5B79-A063-42A5-9845-86B7C35C751C,,,,,,,,,,1473671527.126881,-23.13441467285156,-45.02999877929688,3.842277526855469,108.7930221557617,105.1728668212891,15,260886.5538510417,-0.01556396484375,-0.975799560546875,-0.0416717529296875,,,,,,,,,,,,,,,,,,,,,,,,,,,,,,,,,,,,,192.168.137.203,10.56.9.191,1,0
2016-09-12 11:12:07.166,29,6B5B5B79-A063-42A5-9845-86B7C35C751C,,,,,,,,,,,,,,,,,260886.5734740417,-0.0040283203125,-0.987945556640625,-0.02374267578125,260886.553924875,-0.0009049421384089251,-0.0235838893493057,-0.02126827078148181,,,,,,,,,,,,,,,,,,,,,,,,,,,,,,,,,192.168.137.203,10.56.9.191,1,0
2016-09-12 11:12:07.185,30,6B5B5B79-A063-42A5-9845-86B7C35C751C,,,,,,,,,,1473671527.171965,-22.53285217285156,-44.95851135253906,3.398597717285156,108.9002304077148,105.2800750732422,15,260886.5930970417,0.008026123046875,-0.9997711181640625,-0.00299072265625,260886.573913875,0.02685797959344912,-0.02687928488216975,-0.03162237478360087,,,,,,,,,,,,,,,,,,,,,,,,,,,,,,,,,192.168.137.203,10.56.9.191,1,0
2016-09-12 11:12:07.205,31,6B5B5B79-A063-42A5-9845-86B7C35C751C,,,,,,,,,,1473671527.201437,-22.45687866210938,-44.80825805664062,3.623191833496094,108.9379653930664,105.3178100585938,15,260886.6126890417,0.014495849609375,-0.9926910400390625,-0.0182037353515625,260886.593933875,-0.0009688580045708269,0.02642068854245811,-0.01287744913496915,,,,,,,,,,,,,,,,,,,,,,,,,,,,,,,,,192.168.137.203,10.56.9.191,1,0
2016-09-12 11:12:07.225,32,6B5B5B79-A063-42A5-9845-86B7C35C751C,,,,,,,,,,,,,,,,,260886.6323120417,0.002197265625,-0.9822235107421875,-0.0360870361328125,260886.613922875,-0.06088944989913567,0.03956951379250633,0.02589045316942333,,,,,,,,,,,,,,,,,,,,,,,,,,,,,,,,,192.168.137.203,10.56.9.191,1,0
2016-09-12 11:12:07.244,33,6B5B5B79-A063-42A5-9845-86B7C35C751C,,,,,,,,,,,,,,,,,260886.6519350417,-0.0047760009765625,-0.9843597412109375,-0.0504608154296875,260886.633941875,-0.085402249836661,-0.01137702417681851,0.02896587159624683,,,,,,,,,,,,,,,,,,,,,,,,,,,,,,,,,192.168.137.203,10.56.9.191,1,0
2016-09-12 11:12:07.264,34,6B5B5B79-A063-42A5-9845-86B7C35C751C,,,,,,,,,,1473671527.246677,-22.45513916015625,-44.65864562988281,3.471931457519531,108.835807800293,105.2156524658203,15,260886.6715570417,-0.010711669921875,-0.99468994140625,-0.046722412109375,260886.653930875,-0.09170275634357047,-0.04973160388003069,0.01727592599134402,,,,,,,,,,,,,,,,,,,,,,,,,,,,,,,,,192.168.137.203,10.56.9.191,1,0
2016-09-12 11:12:07.284,35,6B5B5B79-A063-42A5-9845-86B7C35C751C,,,,,,,,,,1473671527.276807,-22.30514526367188,-44.73516845703125,3.099311828613281,108.9026870727539,105.2825317382812,15,260886.6911800417,-0.0201416015625,-0.9852752685546875,-0.0367889404296875,260886.673950875,-0.09499282555425437,-0.1016419398478552,0.0301778762083419,,,,,,,,,,,,,,,,,,,,,,,,,,,,,,,,,192.168.137.203,10.56.9.191,1,0
2016-09-12 11:12:07.304,36,6B5B5B79-A063-42A5-9845-86B7C35C751C,,,,,,,,,,,,,,,,,260886.7108030417,-0.0250244140625,-0.988616943359375,-0.0373992919921875,260886.693939875,-0.131177727917379,-0.08998102269883425,0.02762417103906491,,,,,,,,,,,,,,,,,,,,,,,,,,,,,,,,,192.168.137.203,10.56.9.191,1,0
2016-09-12 11:12:07.323,37,6B5B5B79-A063-42A5-9845-86B7C35C751C,,,,,,,,,,1473671527.321515,-22.52999877929688,-44.65853881835938,3.396080017089844,108.9957504272461,105.3755950927734,15,260886.7303950417,-0.0137939453125,-0.993896484375,-0.0518798828125,260886.713958875,-0.0339995123726056,0.04981895556378529,-0.01009870685358047,,,,,,,,,,,,,,,,,,,,,,,,,,,,,,,,,192.168.137.203,10.56.9.191,1,0
2016-09-12 11:12:07.342,38,6B5B5B79-A063-42A5-9845-86B7C35C751C,,,,,,,,,,,,,,,,,260886.7500180417,-0.0059967041015625,-1.010757446289062,-0.0585784912109375,260886.733947875,0.03854606098558887,0.1122844641960298,-0.02868197862404439,,,,,,,,,,,,,,,,,,,,,,,,,,,,,,,,,192.168.137.203,10.56.9.191,1,0
2016-09-12 11:12:07.362,39,6B5B5B79-A063-42A5-9845-86B7C35C751C,,,,,,,,,,1473671527.351515,-22.3087158203125,-45.11015319824219,3.102455139160156,108.8918228149414,105.2716674804688,15,260886.7696410417,0.010528564453125,-1.019989013671875,-0.05462646484375,260886.753967875,0.01722745645950458,0.05071723979946901,-0.02554291064716799,,,,,,,,,,,,,,,,,,,,,,,,,,,,,,,,,192.168.137.203,10.56.9.191,1,0
2016-09-12 11:12:07.384,40,6B5B5B79-A063-42A5-9845-86B7C35C751C,,,,,,,,,,,,,,,,,260886.7892640417,0.0007476806640625,-1.026840209960938,-0.041259765625,260886.773956875,-0.05322860070741373,-0.05948676295299093,-0.001474592295576874,,,,,,,,,,,,,,,,,,,,,,,,,,,,,,,,,192.168.137.203,10.56.9.191,1,0
2016-09-12 11:12:07.401,41,6B5B5B79-A063-42A5-9845-86B7C35C751C,,,,,,,,,,1473671527.396696,-22.3824462890625,-44.88374328613281,3.549690246582031,108.9497146606445,105.3295593261719,15,260886.8088870417,-0.01690673828125,-1.00396728515625,-0.04052734375,260886.793975875,-0.0439815727704406,-0.03884886240153089,0.04334747411489274,,,,,,,,,,,,,,,,,,,,,,,,,,,,,,,,,192.168.137.203,10.56.9.191,1,0
2016-09-12 11:12:07.421,42,6B5B5B79-A063-42A5-9845-86B7C35C751C,,,,,,,,,,,,,,,,,260886.8284790417,-0.0222015380859375,-1.000244140625,-0.0484466552734375,260886.813964875,-0.02148638367475929,0.0204413592630122,0.02530082930407979,,,,,,,,,,,,,,,,,,,,,,,,,,,,,,,,,192.168.137.203,10.56.9.191,1,0
2016-09-12 11:12:07.440,43,6B5B5B79-A063-42A5-9845-86B7C35C751C,,,,,,,,,,1473671527.426834,-23.35122680664062,-44.28045654296875,3.308418273925781,108.8955307006836,105.2753753662109,15,260886.8481020417,-0.0139923095703125,-0.996978759765625,-0.053741455078125,260886.833984875,-0.01705168782755935,0.04038044634443546,0.001837581152154674,,,,,,,,,,,,,,,,,,,,,,,,,,,,,,,,,192.168.137.203,10.56.9.191,1,0
2016-09-12 11:12:07.466,44,6B5B5B79-A063-42A5-9845-86B7C35C751C,,,,,,,,,,,,,,,,,260886.8677240417,-0.00616455078125,-0.998077392578125,-0.05682373046875,260886.853973875,0.002105495157816646,0.02658447294949798,0.00314785640847366,,,,,,,,,,,,,,,,,,,,,,,,,,,,,,,,,192.168.137.203,10.56.9.191,1,0
2016-09-12 11:12:07.480,45,6B5B5B79-A063-42A5-9845-86B7C35C751C,,,,,,,,,,1473671527.471598,-22.15760803222656,-44.88444519042969,3.627281188964844,108.812126159668,105.1919708251953,15,260886.8873470417,-0.0134735107421875,-0.998138427734375,-0.0484161376953125,260886.873993875,0.03083727489424552,-0.005255748411271377,0.005677060495721912,,,,,,,,,,,,,,,,,,,,,,,,,,,,,,,,,192.168.137.203,10.56.9.191,1,0
2016-09-12 11:12:07.499,46,6B5B5B79-A063-42A5-9845-86B7C35C751C,,,,,,,,,,,,,,,,,260886.9069700417,-0.0094146728515625,-1.009872436523438,-0.0303192138671875,260886.893982875,-0.03736148693272164,-0.06677929696595492,0.01257651193179019,,,,,,,,,,,,,,,,,,,,,,,,,,,,,,,,,192.168.137.203,10.56.9.191,1,0
2016-09-12 11:12:07.519,47,6B5B5B79-A063-42A5-9845-86B7C35C751C,,,,,,,,,,1473671527.501632,-22.45628356933594,-44.80900573730469,3.323204040527344,108.8542251586914,105.2340698242188,15,260886.9265930417,-0.0171356201171875,-0.9997406005859375,-0.036376953125,260886.914001875,-0.0577511808705863,-0.02726437797579521,0.03357180870153888,,,,,,,,,,,,,,,,,,,,,,,,,,,,,,,,,192.168.137.203,10.56.9.191,1,0
2016-09-12 11:12:07.544,48,6B5B5B79-A063-42A5-9845-86B7C35C751C,,,,,,,,,,,,,,,,,260886.9461850417,-0.02703857421875,-0.98272705078125,-0.0505523681640625,260886.933990875,-0.04611103637806796,0.01744077566281992,0.04316930863796643,,,,,,,,,,,,,,,,,,,,,,,,,,,,,,,,,192.168.137.203,10.56.9.191,1,0
2016-09-12 11:12:07.558,49,6B5B5B79-A063-42A5-9845-86B7C35C751C,,,,,,,,,,1473671527.546742,-23.35523986816406,-44.65489196777344,3.536552429199219,108.6434326171875,105.0232772827148,15,260886.9658080417,-0.0233612060546875,-0.98223876953125,-0.0656280517578125,260886.954010875,-0.02675411631093603,0.02142699518245053,0.01777819817293296,,,,,,,,,,,,,,,,,,,,,,,,,,,,,,,,,192.168.137.203,10.56.9.191,1,0
2016-09-12 11:12:07.578,50,6B5B5B79-A063-42A5-9845-86B7C35C751C,,,,,,,,,,1473671527.576587,-22.53215026855469,-44.88352966308594,3.397956848144531,108.6200714111328,104.9999160766602,15,260886.9854310417,-0.00628662109375,-0.99249267578125,-0.06072998046875,260886.973999875,-0.01381754499976712,-0.02552240430677438,-0.003276753405233495,,,,,,,,,,,,,,,,,,,,,,,,,,,,,,,,,192.168.137.203,10.56.9.191,1,0
2016-09-12 11:12:07.597,51,6B5B5B79-A063-42A5-9845-86B7C35C751C,,,,,,,,,,,,,,,,,260887.0050540417,-0.0055084228515625,-0.9986419677734375,-0.055938720703125,260886.994018875,0.01390542931573974,-0.0319494109654626,-0.008291752053961708,,,,,,,,,,,,,,,,,,,,,,,,,,,,,,,,,192.168.137.203,10.56.9.191,1,0
2016-09-12 11:12:07.624,52,6B5B5B79-A063-42A5-9845-86B7C35C751C,,,,,,,,,,1473671527.621658,-22.4554443359375,-44.65826416015625,3.621925354003906,108.7452545166016,105.1250991821289,15,260887.0246760417,-0.0108795166015625,-1.001983642578125,-0.042144775390625,260887.014007875,0.03843420821980555,-0.03412814305325643,-0.01335282338954829,,,,,,,,,,,,,,,,,,,,,,,,,,,,,,,,,192.168.137.203,10.56.9.191,1,0
2016-09-12 11:12:07.637,53,6B5B5B79-A063-42A5-9845-86B7C35C751C,,,,,,,,,,,,,,,,,260887.0442990417,-0.014862060546875,-0.9976959228515625,-0.0396575927734375,260887.034027875,0.01497815060282365,-0.02133964349869593,-0.009375658617623957,,,,,,,,,,,,,,,,,,,,,,,,,,,,,,,,,192.168.137.203,10.56.9.191,1,0
2016-09-12 11:12:07.656,54,6B5B5B79-A063-42A5-9845-86B7C35C751C,,,,,,,,,,1473671527.651557,-23.28327941894531,-44.87904357910156,3.989295959472656,108.792839050293,105.1726837158203,15,260887.0638910417,-0.016387939453125,-0.9930877685546875,-0.043487548828125,260887.054016875,-0.01067128648794751,-0.02970516511485283,0.00316569958777719,,,,,,,,,,,,,,,,,,,,,,,,,,,,,,,,,192.168.137.203,10.56.9.191,1,0
2016-09-12 11:12:07.676,55,6B5B5B79-A063-42A5-9845-86B7C35C751C,,,,,,,,,,,,,,,,,260887.0835140417,-0.011383056640625,-0.99658203125,-0.0378570556640625,260887.074035875,-0.01172003932522071,-0.03716148353485668,0.001042627566766022,,,,,,,,,,,,,,,,,,,,,,,,,,,,,,,,,192.168.137.203,10.56.9.191,1,0
2016-09-12 11:12:07.696,56,6B5B5B79-A063-42A5-9845-86B7C35C751C,,,,,,,,,,,,,,,,,260887.1031370417,-0.0115966796875,-0.9920196533203125,-0.02923583984375,,,,,,,,,,,,,,,,,,,,,,,,,,,,,,,,,,,,,192.168.137.203,10.56.9.191,1,0
2016-09-12 11:12:07.715,57,6B5B5B79-A063-42A5-9845-86B7C35C751C,,,,,,,,,,1473671527.696667,-22.53199768066406,-44.88371276855469,3.322959899902344,108.8950729370117,105.2749176025391,15,260887.1227600417,-0.021942138671875,-0.9805755615234375,-0.019439697265625,260887.114044875,-0.043725909305793,-0.05194309284923249,0.009268599541802773,,,,,,,,,,,,,,,,,,,,,,,,,,,,,,,,,192.168.137.203,10.56.9.191,1,0
2016-09-12 11:12:07.735,58,6B5B5B79-A063-42A5-9845-86B7C35C751C,,,,,,,,,,1473671527.726644,-23.13240051269531,-44.88076782226562,3.541038513183594,108.9590072631836,105.3388519287109,15,260887.1423830417,-0.02410888671875,-0.9779815673828125,-0.0385589599609375,260887.134033875,-0.009430786052188599,0.01678563803466043,-0.02040514027218712,,,,,,,,,,,,,,,,,,,,,,,,,,,,,,,,,192.168.137.203,10.56.9.191,1,0
2016-09-12 11:12:07.754,59,6B5B5B79-A063-42A5-9845-86B7C35C751C,,,,,,,,,,,,,,,,,260887.1620050417,-0.0180816650390625,-0.989288330078125,-0.044647216796875,,,,,,,,,,,,,,,,,,,,,,,,,,,,,,,,,,,,,192.168.137.203,10.56.9.191,1,0
2016-09-12 11:12:07.774,60,6B5B5B79-A063-42A5-9845-86B7C35C751C,,,,,,,,,,1473671527.771681,-22.90553283691406,-44.73222351074219,3.317390441894531,108.8585052490234,105.2383499145508,15,260887.1815980417,-0.0130767822265625,-0.998016357421875,-0.0321044921875,260887.174041875,0.00137632165135295,-0.0004258394583036702,-0.04156502039730271,,,,,,,,,,,,,,,,,,,,,,,,,,,,,,,,,192.168.137.203,10.56.9.191,1,0
2016-09-12 11:12:07.794,61,6B5B5B79-A063-42A5-9845-86B7C35C751C,,,,,,,,,,,,,,,,,260887.2012200417,-0.00750732421875,-0.9971466064453125,-0.04248046875,260887.194061875,-0.05932937013256726,-0.02164537439183702,-0.04002704486778194,,,,,,,,,,,,,,,,,,,,,,,,,,,,,,,,,192.168.137.203,10.56.9.191,1,0
2016-09-12 11:12:07.813,62,6B5B5B79-A063-42A5-9845-86B7C35C751C,,,,,,,,,,1473671527.801619,-22.45744323730469,-44.88345336914062,3.548820495605469,108.7286376953125,105.1084823608398,15,260887.2208430417,0.0035858154296875,-1.009963989257812,-0.0462188720703125,,,,,,,,,,,,,,,,,,,,,,,,,,,,,,,,,,,,,192.168.137.203,10.56.9.191,1,0
2016-09-12 11:12:07.852,63,6B5B5B79-A063-42A5-9845-86B7C35C751C,,,,,,,,,,1473671527.846765,-23.207275390625,-44.80471801757812,3.839530944824219,108.7997283935547,105.179573059082,15,260887.2404660417,0.0144195556640625,-1.011962890625,-0.052947998046875,260887.234069875,-0.01165612345905881,0.01797873420301593,-0.007638212322456263,,,,,,,,,,,,,,,,,,,,,,,,,,,,,,,,,192.168.137.203,10.56.9.191,1,0
2016-09-12 11:12:07.852,64,6B5B5B79-A063-42A5-9845-86B7C35C751C,,,,,,,,,,,,,,,,,260887.2600890417,0.0123443603515625,-1.001327514648438,-0.057830810546875,260887.254058875,-0.03953888743997042,-0.01148621378151175,0.01879765623821529,,,,,,,,,,,,,,,,,,,,,,,,,,,,,,,,,192.168.137.203,10.56.9.191,1,0
2016-09-12 11:12:07.872,65,6B5B5B79-A063-42A5-9845-86B7C35C751C,,,,,,,,,,,,,,,,,260887.2797120417,-0.006011962890625,-0.98675537109375,-0.0529022216796875,,,,,,,,,,,,,,,,,,,,,,,,,,,,,,,,,,,,,192.168.137.203,10.56.9.191,1,0
2016-09-12 11:12:07.892,66,6B5B5B79-A063-42A5-9845-86B7C35C751C,,,,,,,,,,1473671527.876619,-22.68011474609375,-44.73368835449219,3.094993591308594,108.8113021850586,105.1911468505859,15,260887.2993350417,-0.0229949951171875,-0.983306884765625,-0.0431060791015625,260887.274078875,-0.03956285588978113,-0.05818447717994219,0.02212474338805129,,,,,,,,,,,,,,,,,,,,,,,,,,,,,,,,,192.168.137.203,10.56.9.191,1,0
2016-09-12 11:12:07.911,67,6B5B5B79-A063-42A5-9845-86B7C35C751C,,,,,,,,,,,,,,,,,260887.3189270417,-0.00018310546875,-0.9967498779296875,-0.0471954345703125,260887.314086875,0.02482438978506461,0.02396898244293116,-0.04457865348683637,,,,,,,,,,,,,,,,,,,,,,,,,,,,,,,,,192.168.137.203,10.56.9.191,1,0
2016-09-12 11:12:07.931,68,6B5B5B79-A063-42A5-9845-86B7C35C751C,,,,,,,,,,1473671527.921713,-22.30487060546875,-44.65960693359375,3.323677062988281,108.9028396606445,105.2826843261719,15,260887.3385500417,0.0153961181640625,-1.011077880859375,-0.0461883544921875,,,,,,,,,,,,,,,,,,,,,,,,,,,,,,,,,,,,,192.168.137.203,10.56.9.191,1,0
2016-09-12 11:12:07.951,69,6B5B5B79-A063-42A5-9845-86B7C35C751C,,,,,,,,,,,,,,,,,260887.3581720417,0.0096282958984375,-1.011566162109375,-0.0419921875,260887.334076875,-0.0009848369711113023,0.0009528790380303514,-0.01067501491347362,,,,,,,,,,,,,,,,,,,,,,,,,,,,,,,,,192.168.137.203,10.56.9.191,1,0
2016-09-12 11:12:07.970,70,6B5B5B79-A063-42A5-9845-86B7C35C751C,,,,,,,,,,1473671527.951652,-22.98300170898438,-44.880615234375,3.842750549316406,108.9234848022461,105.3033294677734,15,260887.3777950417,-0.0080108642578125,-0.993896484375,-0.0414276123046875,260887.374084875,-0.04181216174646205,-0.02722070213391791,0.03800783612928386,,,,,,,,,,,,,,,,,,,,,,,,,,,,,,,,,192.168.137.203,10.56.9.191,1,0
2016-09-12 11:12:07.990,71,6B5B5B79-A063-42A5-9845-86B7C35C751C,,,,,,,,,,,,,,,,,260887.3974180417,-0.0201263427734375,-0.9926605224609375,-0.03594970703125,,,,,,,,,,,,,,,,,,,,,,,,,,,,,,,,,,,,,192.168.137.203,10.56.9.191,1,0
2016-09-12 11:12:08.009,72,6B5B5B79-A063-42A5-9845-86B7C35C751C,,,,,,,,,,1473671527.996702,-22.38128662109375,-44.80929565429688,3.324073791503906,108.9219055175781,105.3017501831055,15,260887.4170410417,-0.0106658935546875,-0.9944915771484375,-0.0421142578125,260887.394104875,-0.03201385946384253,-0.01052241578301208,0.009280317450599122,,,,,,,,,,,,,,,,,,,,,,,,,,,,,,,,,192.168.137.203,10.56.9.191,1,0
2016-09-12 11:12:08.029,73,6B5B5B79-A063-42A5-9845-86B7C35C751C,,,,,,,,,,1473671528.026904,-22.38044738769531,-44.6585693359375,3.622795104980469,108.8932647705078,105.2731094360352,15,260887.4366640417,-0.007354736328125,-0.993865966796875,-0.0416717529296875,260887.434112875,0.006452306689043979,0.0200919525279938,-0.008515457585528364,,,,,,,,,,,,,,,,,,,,,,,,,,,,,,,,,192.168.137.203,10.56.9.191,1,0
2016-09-12 11:12:08.049,74,6B5B5B79-A063-42A5-9845-86B7C35C751C,,,,,,,,,,,,,,,,,260887.4562860417,0.0034637451171875,-1.000152587890625,-0.0461273193359375,,,,,,,,,,,,,,,,,,,,,,,,,,,,,,,,,,,,,192.168.137.203,10.56.9.191,1,0
2016-09-12 11:12:08.068,75,6B5B5B79-A063-42A5-9845-86B7C35C751C,1473671527.999933,51.0307968920572,13.72895088048068,136.4675,0,-1,3,10,-9999,,,,,,,,260887.4758790417,-0.00555419921875,-0.9912109375,-0.0396728515625,260887.454101875,-0.02137453090897597,-0.01051149682254275,0.01046089676183125,,,,,,,,,,,,,,,,,,,,,,,,,,,,,,,,,192.168.137.203,10.56.9.191,1,0
2016-09-12 11:12:08.088,76,6B5B5B79-A063-42A5-9845-86B7C35C751C,,,,,,,,,,1473671528.07176,-23.05628967285156,-44.73069763183594,3.690635681152344,108.8808746337891,105.2607192993164,15,260887.4955010417,-0.013336181640625,-0.9861602783203125,-0.0337982177734375,260887.494110875,-0.02245524167933012,0.003317233453802699,0.01254348873427321,,,,,,,,,,,,,,,,,,,,,,,,,,,,,,,,,192.168.137.203,10.56.9.191,1,0
2016-09-12 11:12:08.107,77,6B5B5B79-A063-42A5-9845-86B7C35C751C,,,,,,,,,,1473671528.101824,-22.0794677734375,-44.58514404296875,3.475639343261719,108.8523788452148,105.2322235107422,15,260887.5151240417,-0.0164794921875,-0.9910125732421875,-0.0406646728515625,,,,,,,,,,,,,,,,,,,,,,,,,,,,,,,,,,,,,192.168.137.203,10.56.9.191,1,0
2016-09-12 11:12:08.127,78,6B5B5B79-A063-42A5-9845-86B7C35C751C,,,,,,,,,,,,,,,,,260887.5347470417,-0.009490966796875,-1.000808715820312,-0.05126953125,260887.514129875,-0.03086923282732646,0.01273390475221388,-0.001433313298680646,,,,,,,,,,,,,,,,,,,,,,,,,,,,,,,,,192.168.137.203,10.56.9.191,1,0
2016-09-12 11:12:08.147,79,6B5B5B79-A063-42A5-9845-86B7C35C751C,,,,,,,,,,,,,,,,,260887.5543700417,-0.011932373046875,-0.99224853515625,-0.0487213134765625,260887.554138875,-0.04159644569816564,-0.02008103356752448,0.009203618411204839,,,,,,,,,,,,,,,,,,,,,,,,,,,,,,,,,192.168.137.203,10.56.9.191,1,0
2016-09-12 11:12:08.166,80,6B5B5B79-A063-42A5-9845-86B7C35C751C,,,,,,,,,,1473671528.147068,-22.98300170898438,-44.880615234375,3.842750549316406,108.7941360473633,105.1739807128906,15,260887.5739620417,-0.0087890625,-0.9895782470703125,-0.046905517578125,,,,,,,,,,,,,,,,,,,,,,,,,,,,,,,,,,,,,192.168.137.203,10.56.9.191,1,0
2016-09-12 11:12:08.186,81,6B5B5B79-A063-42A5-9845-86B7C35C751C,,,,,,,,,,1473671528.184939,-23.05598449707031,-44.7310791015625,3.540641784667969,108.7577819824219,105.1376266479492,15,260887.5935850417,-0.0048980712890625,-0.9875946044921875,-0.0458221435546875,260887.574127875,-7.989483270237714e-06,0.01381781131587613,0.001027980180770586,,,,,,,,,,,,,,,,,,,,,,,,,,,,,,,,,192.168.137.203,10.56.9.191,1,0
2016-09-12 11:12:08.206,82,6B5B5B79-A063-42A5-9845-86B7C35C751C,,,,,,,,,,,,,,,,,260887.6132080417,0.0106658935546875,-1.00408935546875,-0.047607421875,260887.594146875,-0.008421980631266583,0.008365521616156902,-0.01290780917139605,,,,,,,,,,,,,,,,,,,,,,,,,,,,,,,,,192.168.137.203,10.56.9.191,1,0
2016-09-12 11:12:08.225,83,6B5B5B79-A063-42A5-9845-86B7C35C751C,,,,,,,,,,1473671528.221683,-22.15742492675781,-44.9605712890625,3.177925109863281,108.7423248291016,105.1221694946289,15,260887.6328310417,0.0014495849609375,-0.997833251953125,-0.043182373046875,260887.614135875,-0.04262921956889837,-0.01800057212395458,0.004922054326684448,,,,,,,,,,,,,,,,,,,,,,,,,,,,,,,,,192.168.137.203,10.56.9.191,1,0
2016-09-12 11:12:08.245,84,6B5B5B79-A063-42A5-9845-86B7C35C751C,,,,,,,,,,,,,,,,,260887.6524230417,-0.0115966796875,-0.9875335693359375,-0.045318603515625,260887.634155875,-0.05343632727243992,-0.02203046748546248,0.02614052399578177,,,,,,,,,,,,,,,,,,,,,,,,,,,,,,,,,192.168.137.203,10.56.9.191,1,0
2016-09-12 11:12:08.265,85,6B5B5B79-A063-42A5-9845-86B7C35C751C,,,,,,,,,,1473671528.251672,-23.13250732421875,-44.95651245117188,3.241676330566406,108.7280578613281,105.1079025268555,10,260887.6720460417,-0.0135498046875,-0.9955596923828125,-0.049163818359375,260887.654144875,-0.03736947641599187,0.005452289699719224,0.01344337086661099,,,,,,,,,,,,,,,,,,,,,,,,,,,,,,,,,192.168.137.203,10.56.9.191,1,0
2016-09-12 11:12:08.284,86,6B5B5B79-A063-42A5-9845-86B7C35C751C,,,,,,,,,,,,,,,,,260887.6916680417,-0.00982666015625,-0.9993743896484375,-0.04229736328125,260887.674163875,-0.01702771937774863,-0.001072987603192925,-0.001246359390157084,,,,,,,,,,,,,,,,,,,,,,,,,,,,,,,,,192.168.137.203,10.56.9.191,1,0
2016-09-12 11:12:08.304,87,6B5B5B79-A063-42A5-9845-86B7C35C751C,,,,,,,,,,1473671528.296736,-22.45628356933594,-44.80900573730469,3.323204040527344,108.7317810058594,105.1116256713867,10,260887.7112910417,0.001312255859375,-1.011398315429688,-0.0466766357421875,260887.694152875,-0.02014201995648729,-0.0001201085651625736,-0.01194427748900538,,,,,,,,,,,,,,,,,,,,,,,,,,,,,,,,,192.168.137.203,10.56.9.191,1,0
2016-09-12 11:12:08.323,88,6B5B5B79-A063-42A5-9845-86B7C35C751C,,,,,,,,,,,,,,,,,260887.7308840417,-0.010162353515625,-1.00384521484375,-0.0467987060546875,260887.714172875,-0.01179194467465285,0.01391608196010005,0.01049658312043831,,,,,,,,,,,,,,,,,,,,,,,,,,,,,,,,,192.168.137.203,10.56.9.191,1,0
2016-09-12 11:12:08.346,89,6B5B5B79-A063-42A5-9845-86B7C35C751C,,,,,,,,,,1473671528.327126,-21.78189086914062,-44.88688659667969,3.256614685058594,108.7197113037109,105.0995559692383,10,260887.7505060417,-0.0004425048828125,-1.001602172851562,-0.053619384765625,260887.734161875,-0.03839426080345436,0.004335626254649,0.008104531829329138,,,,,,,,,,,,,,,,,,,,,,,,,,,,,,,,,192.168.137.203,10.56.9.191,1,0
2016-09-12 11:12:08.362,90,6B5B5B79-A063-42A5-9845-86B7C35C751C,,,,,,,,,,,,,,,,,260887.7701290417,-0.003387451171875,-0.9990386962890625,-0.0526580810546875,260887.754180875,-0.03839426080345436,0.0053976948973726,0.00810160235213005,,,,,,,,,,,,,,,,,,,,,,,,,,,,,,,,,192.168.137.203,10.56.9.191,1,0
2016-09-12 11:12:08.382,91,6B5B5B79-A063-42A5-9845-86B7C35C751C,,,,,,,,,,1473671528.372179,-22.98097229003906,-44.73136901855469,3.541511535644531,108.6935958862305,105.0734405517578,10,260887.7897520417,-0.0076751708984375,-1.0018310546875,-0.0509490966796875,260887.774170875,-0.004338822047957095,0.01391608196010005,0.01057674426924969,,,,,,,,,,,,,,,,,,,,,,,,,,,,,,,,,192.168.137.203,10.56.9.191,1,0
2016-09-12 11:12:08.402,92,6B5B5B79-A063-42A5-9845-86B7C35C751C,,,,,,,,,,,,,,,,,260887.8093750417,-0.0156402587890625,-1.000930786132812,-0.049591064453125,260887.794189875,0.008485896497428485,0.0234091859817965,0.004291417780553685,,,,,,,,,,,,,,,,,,,,,,,,,,,,,,,,,192.168.137.203,10.56.9.191,1,0
2016-09-12 11:12:08.426,93,6B5B5B79-A063-42A5-9845-86B7C35C751C,,,,,,,,,,1473671528.401729,-22.23211669921875,-44.96064758300781,3.027061462402344,108.6594543457031,105.0392990112305,10,260887.8289670417,-0.0108642578125,-0.995849609375,-0.0503692626953125,260887.814178875,-0.02024588323900038,-0.008474711220850152,0.001937982325250662,,,,,,,,,,,,,,,,,,,,,,,,,,,,,,,,,192.168.137.203,10.56.9.191,1,0
2016-09-12 11:12:08.441,94,6B5B5B79-A063-42A5-9845-86B7C35C751C,,,,,,,,,,,,,,,,,260887.8485900417,-0.006439208984375,-0.99853515625,-0.0543060302734375,260887.834198875,-0.03511218107604071,-0.01171551195136758,-0.003543868462568442,,,,,,,,,,,,,,,,,,,,,,,,,,,,,,,,,192.168.137.203,10.56.9.191,1,0
2016-09-12 11:12:08.461,95,6B5B5B79-A063-42A5-9845-86B7C35C751C,,,,,,,,,,1473671528.446891,-21.93316650390625,-45.03646850585938,3.181144714355469,108.6841506958008,105.0639953613281,10,260887.8682130417,-0.01556396484375,-0.988372802734375,-0.0491180419921875,260887.854187875,-0.01388146086592902,-0.02331091533757258,0.005245894715238083,,,,,,,,,,,,,,,,,,,,,,,,,,,,,,,,,192.168.137.203,10.56.9.191,1,0
2016-09-12 11:12:08.480,96,6B5B5B79-A063-42A5-9845-86B7C35C751C,,,,,,,,,,1473671528.477044,-23.13397216796875,-45.03056335449219,3.617286682128906,108.7136077880859,105.0934524536133,10,260887.8878350417,-0.0169830322265625,-0.992767333984375,-0.04156494140625,260887.874206875,-0.01373765016706474,-0.009700564270613625,-0.01398132940680699,,,,,,,,,,,,,,,,,,,,,,,,,,,,,,,,,192.168.137.203,10.56.9.191,1,0
2016-09-12 11:12:08.505,97,6B5B5B79-A063-42A5-9845-86B7C35C751C,,,,,,,,,,,,,,,,,260887.9074280417,-0.000701904296875,-1.001861572265625,-0.0493927001953125,260887.894195875,0.001232510952488672,0.03057069246912858,-0.02246083431761929,,,,,,,,,,,,,,,,,,,,,,,,,,,,,,,,,192.168.137.203,10.56.9.191,1,0
2016-09-12 11:12:08.519,98,6B5B5B79-A063-42A5-9845-86B7C35C751C,,,,,,,,,,,,,,,,,260887.9270510417,0.0034332275390625,-1.010879516601562,-0.0481719970703125,260887.914215875,0.02241529426297893,0.01904080284573953,-0.007274690833660447,,,,,,,,,,,,,,,,,,,,,,,,,,,,,,,,,192.168.137.203,10.56.9.191,1,0
2016-09-12 11:12:08.539,99,6B5B5B79-A063-42A5-9845-86B7C35C751C,,,,,,,,,,1473671528.521771,-22.15528869628906,-44.73558044433594,3.176033020019531,108.7053985595703,105.0852432250977,10,260887.9466730417,-0.006866455078125,-0.9985809326171875,-0.03668212890625,260887.934204875,-0.01190379744043618,-0.02310345508865541,0.02552400220342843,,,,,,,,,,,,,,,,,,,,,,,,,,,,,,,,,192.168.137.203,10.56.9.191,1,0
2016-09-12 11:12:08.559,100,6B5B5B79-A063-42A5-9845-86B7C35C751C,,,,,,,,,,1473671528.55175,-22.08244323730469,-44.96087646484375,3.178794860839844,108.6896209716797,105.069465637207,10,260887.9662960417,-0.0181884765625,-0.9945831298828125,-0.0417327880859375,260887.954223875,-0.05237159546862623,-0.02309253612818608,0.0261549050656682,,,,,,,,,,,,,,,,,,,,,,,,,,,,,,,,,192.168.137.203,10.56.9.191,1,0
2016-09-12 11:12:08.585,101,6B5B5B79-A063-42A5-9845-86B7C35C751C,,,,,,,,,,,,,,,,,260887.9858880417,-0.014495849609375,-0.99005126953125,-0.0515899658203125,260887.974212875,-0.01607484033971828,0.007576426985166425,0.01366654376595963,,,,,,,,,,,,,,,,,,,,,,,,,,,,,,,,,192.168.137.203,10.56.9.191,1,0
2016-09-12 11:12:08.598,102,6B5B5B79-A063-42A5-9845-86B7C35C751C,,,,,,,,,,1473671528.596822,-22.15486145019531,-44.66020202636719,3.325401306152344,108.6537704467773,105.0336151123047,10,260888.0055110417,-0.00372314453125,-1.001144409179688,-0.04217529296875,260887.994232875,0.01608282982298852,0.02321264469334866,-0.01481756198909187,,,,,,,,,,,,,,,,,,,,,,,,,,,,,,,,,192.168.137.203,10.56.9.191,1,0
2016-09-12 11:12:08.617,103,6B5B5B79-A063-42A5-9845-86B7C35C751C,,,,,,,,,,,,,,,,,260888.0251340417,0.0171966552734375,-1.007369995117188,-0.0474700927734375,260888.014221875,0.00216142154070831,0.0275701088689363,-0.004317516759236461,,,,,,,,,,,,,,,,,,,,,,,,,,,,,,,,,192.168.137.203,10.56.9.191,1,0
2016-09-12 11:12:08.637,104,6B5B5B79-A063-42A5-9845-86B7C35C751C,,,,,,,,,,1473671528.627057,-22.23069763183594,-44.81065368652344,3.025810241699219,108.629753112793,105.0095977783203,10,260888.0447570417,0.0114593505859375,-1.003372192382812,-0.049041748046875,260888.034240875,-0.02047757825383728,-0.00603392408179253,0.03284796151725534,,,,,,,,,,,,,,,,,,,,,,,,,,,,,,,,,192.168.137.203,10.56.9.191,1,0
2016-09-12 11:12:08.665,105,6B5B5B79-A063-42A5-9845-86B7C35C751C,,,,,,,,,,,,,,,,,260888.0643490417,-0.0026397705078125,-1.003005981445312,-0.0435791015625,260888.054229875,-0.05679031234928571,-0.03986725520237719,0.04747723801727861,,,,,,,,,,,,,,,,,,,,,,,,,,,,,,,,,192.168.137.203,10.56.9.191,1,0
2016-09-12 11:12:08.676,106,6B5B5B79-A063-42A5-9845-86B7C35C751C,,,,,,,,,,1473671528.671871,-23.05586242675781,-44.65531921386719,3.840003967285156,108.5840606689453,104.9639053344727,10,260888.0839720417,-0.01190185546875,-0.992584228515625,-0.0442047119140625,260888.074249875,-0.04404548863660251,-0.01752013786330428,0.05181739164578075,,,,,,,,,,,,,,,,,,,,,,,,,,,,,,,,,192.168.137.203,10.56.9.191,1,0
2016-09-12 11:12:08.696,107,6B5B5B79-A063-42A5-9845-86B7C35C751C,,,,,,,,,,,,,,,,,260888.1035950417,-0.0214691162109375,-0.9864959716796875,-0.0494842529296875,260888.094238875,-0.03106896990908241,0.0172551533348414,0.02520655340149098,,,,,,,,,,,,,,,,,,,,,,,,,,,,,,,,,192.168.137.203,10.56.9.191,1,0
2016-09-12 11:12:08.715,108,6B5B5B79-A063-42A5-9845-86B7C35C751C,,,,,,,,,,1473671528.701718,-22.60710144042969,-44.95915222167969,3.022743225097656,108.5317535400391,104.9115982055664,10,260888.1231870417,-0.0111541748046875,-0.990447998046875,-0.054595947265625,,,,,,,,,,,,,,,,,,,,,,,,,,,,,,,,,,,,,192.168.137.203,10.56.9.191,1,0
2016-09-12 11:12:08.745,109,6B5B5B79-A063-42A5-9845-86B7C35C751C,,,,,,,,,,,,,,,,,260888.1428100417,-0.0035400390625,-0.9961395263671875,-0.0560302734375,260888.134246875,-0.0107112339042987,-0.007347128815310603,0.008434497488389956,,,,,,,,,,,,,,,,,,,,,,,,,,,,,,,,,192.168.137.203,10.56.9.191,1,0
2016-09-12 11:12:08.755,110,6B5B5B79-A063-42A5-9845-86B7C35C751C,,,,,,,,,,1473671528.746948,-22.67898559570312,-44.58331298828125,3.243721008300781,108.5016632080078,104.8815078735352,10,260888.1624330417,-0.0087432861328125,-0.9992828369140625,-0.0492401123046875,260888.154266875,-0.02669020044477412,-0.04769481827833808,0.009440107116003876,,,,,,,,,,,,,,,,,,,,,,,,,,,,,,,,,192.168.137.203,10.56.9.191,1,0
2016-09-12 11:12:08.774,111,6B5B5B79-A063-42A5-9845-86B7C35C751C,,,,,,,,,,,,,,,,,260888.1820250417,-0.0123291015625,-1.004165649414062,-0.0406646728515625,,,,,,,,,,,,,,,,,,,,,,,,,,,,,,,,,,,,,192.168.137.203,10.56.9.191,1,0
2016-09-12 11:12:08.794,112,6B5B5B79-A063-42A5-9845-86B7C35C751C,,,,,,,,,,1473671528.777049,-23.28195190429688,-44.8807373046875,3.314323425292969,108.5495529174805,104.9293975830078,10,260888.2016480417,-0.008880615234375,-0.998870849609375,-0.0440216064453125,260888.194274875,0.00425093773198448,0.03399711552762453,0.001018126484737293,,,,,,,,,,,,,,,,,,,,,,,,,,,,,,,,,192.168.137.203,10.56.9.191,1,0
2016-09-12 11:12:08.814,113,6B5B5B79-A063-42A5-9845-86B7C35C751C,,,,,,,,,,,,,,,,,260888.2212710417,-0.0054779052734375,-1.002975463867188,-0.0488739013671875,260888.214263875,-0.02030180962189205,0.02133964349869593,0.009318400654187254,,,,,,,,,,,,,,,,,,,,,,,,,,,,,,,,,192.168.137.203,10.56.9.191,1,0
2016-09-12 11:12:08.833,114,6B5B5B79-A063-42A5-9845-86B7C35C751C,,,,,,,,,,1473671528.824216,-22.45343017578125,-44.509033203125,3.320686340332031,108.4852676391602,104.8651123046875,10,260888.2408930417,-0.0114898681640625,-0.99267578125,-0.0528411865234375,,,,,,,,,,,,,,,,,,,,,,,,,,,,,,,,,,,,,192.168.137.203,10.56.9.191,1,0
2016-09-12 11:12:08.853,115,6B5B5B79-A063-42A5-9845-86B7C35C751C,,,,,,,,,,,,,,,,,260888.2605160417,-0.026641845703125,-0.982330322265625,-0.050140380859375,260888.254272875,-0.03214968067943656,-0.04007471545129436,0.02748542034627179,,,,,,,,,,,,,,,,,,,,,,,,,,,,,,,,,192.168.137.203,10.56.9.191,1,0
2016-09-12 11:12:08.872,116,6B5B5B79-A063-42A5-9845-86B7C35C751C,,,,,,,,,,1473671528.8592,-22.75312805175781,-44.50822448730469,3.167228698730469,108.4723358154297,104.852180480957,10,260888.2801080417,-0.0221099853515625,-0.9935455322265625,-0.0414581298828125,260888.274292875,0.01172802880849095,-0.00427011249183305,-0.001994441340360341,,,,,,,,,,,,,,,,,,,,,,,260888.2560125,stationary,1,2016-09-12 11:12:08.849,,,,,,,192.168.137.203,10.56.9.191,1,0
2016-09-12 11:12:08.892,117,6B5B5B79-A063-42A5-9845-86B7C35C751C,,,,,,,,,,,,,,,,,260888.2997310417,-0.006011962890625,-0.99981689453125,-0.039337158203125,,,,,,,,,,,,,,,,,,,,,,,,,,,,,,,,,,,,,192.168.137.203,10.56.9.191,1,0
2016-09-12 11:12:08.912,118,6B5B5B79-A063-42A5-9845-86B7C35C751C,,,,,,,,,,1473671528.905147,-22.22959899902344,-44.5843505859375,3.548896789550781,108.4792251586914,104.8590698242188,10,260888.3193540417,-0.0001678466796875,-1.00347900390625,-0.044891357421875,260888.314300875,-0.04055568234416267,-0.0189862080433929,0.01241033067976925,,,,,,,,,,,,,,,,,,,,,,,,,,,,,,,,,192.168.137.203,10.56.9.191,1,0
2016-09-12 11:12:08.931,119,6B5B5B79-A063-42A5-9845-86B7C35C751C,,,,,,,,,,1473671528.927186,-22.90596008300781,-44.80760192871094,3.168022155761719,108.4790420532227,104.85888671875,10,260888.3389770417,-0.011749267578125,-0.9997100830078125,-0.049835205078125,260888.334289875,-0.04916142109064472,-0.03585919776180793,0.02409228680140183,,,,,,,,,,,,,,,,,,,,,,,,,,,,,,,,,192.168.137.203,10.56.9.191,1,0
2016-09-12 11:12:08.951,120,6B5B5B79-A063-42A5-9845-86B7C35C751C,,,,,,,,,,,,,,,,,260888.3585690417,-0.0189208984375,-0.9990081787109375,-0.0439300537109375,,,,,,,,,,,,,,,,,,,,,,,,,,,,,,,,,,,,,192.168.137.203,10.56.9.191,1,0
2016-09-12 11:12:08.970,121,6B5B5B79-A063-42A5-9845-86B7C35C751C,,,,,,,,,,,,,,,,,260888.3781920417,-0.0208282470703125,-0.9947052001953125,-0.05157470703125,260888.354309875,-0.02355992089949499,-0.01786954459832268,0.01792094360736121,,,,,,,,,,,,,,,,,,,,,,,,,,,,,,,,,192.168.137.203,10.56.9.191,1,0
2016-09-12 11:12:08.990,122,6B5B5B79-A063-42A5-9845-86B7C35C751C,,,,,,,,,,1473671528.971928,-22.23101806640625,-44.73434448242188,3.550163269042969,108.4855499267578,104.8653945922852,10,260888.3978150417,-0.0216217041015625,-0.987457275390625,-0.053558349609375,260888.394317875,-0.07039214130075641,-0.04125689265918053,0.0153493952587807,,,,,,,,,,,,,,,,,,,,,,,,,,,,,,,,,192.168.137.203,10.56.9.191,1,0
2016-09-12 11:12:09.010,123,6B5B5B79-A063-42A5-9845-86B7C35C751C,,,,,,,,,,1473671529.001886,-22.37910461425781,-44.66026306152344,2.947822570800781,108.4863586425781,104.8662033081055,10,260888.417350125,-0.0290679931640625,-0.98388671875,-0.0522918701171875,,,,,,,,,,,,,,,,,,,,,,,,,,,,,,,,,,,,,192.168.137.203,10.56.9.191,1,0
2016-09-12 11:12:09.029,124,6B5B5B79-A063-42A5-9845-86B7C35C751C,,,,,,,,,,,,,,,,,260888.436942125,-0.024932861328125,-0.9947052001953125,-0.055633544921875,260888.414222875,-0.008493885980698722,0.008463792260380828,-0.00331323871216758,,,,,,,,,,,,,,,,,,,,,,,,,,,,,,,,,192.168.137.203,10.56.9.191,1,0
2016-09-12 11:12:09.049,125,6B5B5B79-A063-42A5-9845-86B7C35C751C,,,,,,,,,,1473671529.046965,-22.22772216796875,-44.43492126464844,3.322654724121094,108.4742736816406,104.854118347168,10,260888.456565125,-0.0062103271484375,-1.002517700195312,-0.0551605224609375,260888.454231875,-0.01461063437239272,-0.03757640403269102,-0.03950213581692733,,,,,,,,,,,,,,,,,,,,,,,,,,,,,,,,,192.168.137.203,10.56.9.191,1,0
2016-09-12 11:12:09.069,126,6B5B5B79-A063-42A5-9845-86B7C35C751C,,,,,,,,,,,,,,,,,260888.476187125,-0.00201416015625,-1.011611938476562,-0.0493316650390625,,,,,,,,,,,,,,,,,,,,,,,,,,,,,,,,,,,,,192.168.137.203,10.56.9.191,1,0
2016-09-12 11:12:09.088,127,6B5B5B79-A063-42A5-9845-86B7C35C751C,1473671528.999934,51.03080062200411,13.72884551995781,138.8611,0,-1,4,10,-9999,1473671529.078155,-22.9781494140625,-44.35545349121094,3.913352966308594,108.5847625732422,104.9646072387695,10,260888.495780125,-0.0154571533203125,-1.003189086914062,-0.0405731201171875,260888.474250875,-0.04146861396584183,-0.07973158092755529,-0.007689345015385785,,,,,,,,,,,,,,,,,,,,,,,,,,,,,,,,,192.168.137.203,10.56.9.191,1,0
2016-09-12 11:12:09.108,128,6B5B5B79-A063-42A5-9845-86B7C35C751C,,,,,,,,,,,,,,,,,260888.515403125,-0.0151519775390625,-1.002655029296875,-0.0427703857421875,260888.514259875,-0.0009289105882196383,0.01255920138470468,-0.01816968285317461,,,,,,,,,,,,,,,,,,,,,,,,,,,,,,,,,192.168.137.203,10.56.9.191,1,0
2016-09-12 11:12:09.127,129,6B5B5B79-A063-42A5-9845-86B7C35C751C,,,,,,,,,,1473671529.12192,-22.22843933105469,-44.50991821289062,3.323280334472656,108.6786804199219,105.0585250854492,10,260888.535025125,-0.0118255615234375,-0.99713134765625,-0.05181884765625,,,,,,,,,,,,,,,,,,,,,,,,,,,,,,,,,,,,,192.168.137.203,10.56.9.191,1,0
2016-09-12 11:12:09.147,130,6B5B5B79-A063-42A5-9845-86B7C35C751C,,,,,,,,,,,,,,,,,260888.554648125,-0.02410888671875,-0.993804931640625,-0.0450286865234375,260888.534248875,-0.01046355992292133,-0.01193389116075407,-0.02460174951793399,,,,,,,,,,,,,,,,,,,,,,,,,,,,,,,,,192.168.137.203,10.56.9.191,1,0
2016-09-12 11:12:09.167,131,6B5B5B79-A063-42A5-9845-86B7C35C751C,,,,,,,,,,1473671529.151853,-22.45414733886719,-44.58401489257812,3.321311950683594,108.7226333618164,105.1024780273438,10,260888.574271125,-0.02337646484375,-0.997222900390625,-0.0413818359375,260888.574256875,0.01746714095761171,0.005782787990998058,-0.0574017741355679,,,,,,,,,,,,,,,,,,,,,,,,,,,,,,,,,192.168.137.203,10.56.9.191,1,0
2016-09-12 11:12:09.186,132,6B5B5B79-A063-42A5-9845-86B7C35C751C,,,,,,,,,,,,,,,,,260888.593863125,-0.0279998779296875,-0.999542236328125,-0.0444793701171875,,,,,,,,,,,,,,,,,,,,,,,,,,,,,,,,,,,,,192.168.137.203,10.56.9.191,1,0
2016-09-12 11:12:09.206,133,6B5B5B79-A063-42A5-9845-86B7C35C751C,,,,,,,,,,1473671529.196918,-22.37947082519531,-44.50801086425781,3.846534729003906,108.8878402709961,105.2676849365234,10,260888.613486125,-0.0220489501953125,-1.020355224609375,-0.0429840087890625,260888.594276875,-0.002650910549064874,-0.0272942053800041,-0.07245342798447774,,,,,,,,,,,,,,,,,,,,,,,,,,,,,,,,,192.168.137.203,10.56.9.191,1,0
2016-09-12 11:12:09.226,134,6B5B5B79-A063-42A5-9845-86B7C35C751C,,,,,,,,,,,,,,,,,260888.633109125,-0.036163330078125,-1.015289306640625,-0.0531005859375,260888.614265875,-0.03129480596952113,-0.01575339679614572,-0.08665366923288924,,,,,,,,,,,,,,,,,,,,,,,,,,,,,,,,,192.168.137.203,10.56.9.191,1,0
2016-09-12 11:12:09.245,135,6B5B5B79-A063-42A5-9845-86B7C35C751C,,,,,,,,,,1473671529.228136,-21.78105163574219,-44.73614501953125,3.555351257324219,109.0261459350586,105.4059906005859,10,260888.652701125,-0.039886474609375,-1.023056030273438,-0.052764892578125,260888.634284875,0.0008548747099154355,-0.007540740626559363,-0.1140512052631884,,,,,,,,,,,,,,,,,,,,,,,,,,,,,,,,,192.168.137.203,10.56.9.191,1,0
2016-09-12 11:12:09.265,136,6B5B5B79-A063-42A5-9845-86B7C35C751C,,,,,,,,,,,,,,,,,260888.672324125,-0.0439910888671875,-1.030838012695312,-0.045440673828125,260888.654273875,0.005457349705790375,-0.01863094235397634,-0.1598168296478731,,,,,,,,,,,,,,,,,,,,,,,,,,,,,,,,,192.168.137.203,10.56.9.191,1,0
2016-09-12 11:12:09.284,137,6B5B5B79-A063-42A5-9845-86B7C35C751C,,,,,,,,,,1473671529.272028,-22.08445739746094,-45.110107421875,3.480033874511719,109.4714584350586,105.8513031005859,10,260888.691947125,-0.063812255859375,-1.026641845703125,-0.031219482421875,260888.674293875,0.02700764924671157,-0.01048379994720593,-0.193725261911198,,,,,,,,,,,,,,,,,,,,,,,,,,,,,,,,,192.168.137.203,10.56.9.191,1,0
2016-09-12 11:12:09.305,138,6B5B5B79-A063-42A5-9845-86B7C35C751C,,,,,,,,,,,,,,,,,260888.711570125,-0.066436767578125,-1.029891967773438,-0.0330810546875,260888.694282875,0.07740158128984496,0.04744954114194179,-0.2402549472126264,,,,,,,,,,,,,,,,,,,,,,,,,,,,,,,,,192.168.137.203,10.56.9.191,1,0
2016-09-12 11:12:09.324,139,6B5B5B79-A063-42A5-9845-86B7C35C751C,,,,,,,,,,1473671529.305202,-22.15875244140625,-44.95887756347656,3.852897644042969,109.7604293823242,106.1402740478516,10,260888.731162125,-0.059112548828125,-1.02801513671875,-0.0374298095703125,260888.714302875,0.07361403358753427,0.06592255804327642,-0.3032512238501238,,,,,,,,,,,,,,,,,,,,,,,,,,,,,,,,,192.168.137.203,10.56.9.191,1,0
2016-09-12 11:12:09.343,140,6B5B5B79-A063-42A5-9845-86B7C35C751C,,,,,,,,,,,,,,,,,260888.750785125,-0.0491180419921875,-1.019119262695312,-0.0503997802734375,260888.734291875,0.06218161566004211,0.04536109021510165,-0.340633749755457,,,,,,,,,,,,,,,,,,,,,,,,,,,,,,,,,192.168.137.203,10.56.9.191,1,0
2016-09-12 11:12:09.363,141,6B5B5B79-A063-42A5-9845-86B7C35C751C,,,,,,,,,,1473671529.347071,-20.43557739257812,-45.19126892089844,3.649696350097656,110.5159225463867,106.8957672119141,10,260888.770407125,-0.0555419921875,-1.024444580078125,-0.049072265625,260888.754310875,0.0710270389046313,0.03004445183772892,-0.3842097230918786,,,,,,,,,,,,,,,,,,,,,,,,,,,,,,,,,192.168.137.203,10.56.9.191,1,0
2016-09-12 11:12:09.386,142,6B5B5B79-A063-42A5-9845-86B7C35C751C,,,,,,,,,,,,,,,,,260888.790030125,-0.0626373291015625,-1.007293701171875,-0.0490264892578125,260888.774299875,0.06369375852698911,-0.0009193232082953531,-0.4001958801672972,,,,,,,,,,,,,,,,,,,,,,,,,,,,,,,,,192.168.137.203,10.56.9.191,1,0
2016-09-12 11:12:09.403,143,6B5B5B79-A063-42A5-9845-86B7C35C751C,,,,,,,,,,1473671529.385916,-20.88856506347656,-45.41334533691406,4.096366882324219,111.0524978637695,107.4323425292969,10,260888.809622125,-0.0752716064453125,-0.9997100830078125,-0.044189453125,260888.794319875,0.05426297247480051,-0.01599574445534293,-0.4205131361235117,,,,,,,,,,,,,,,,,,,,,,,,,,,,,,,,,192.168.137.203,10.56.9.191,1,0
2016-09-12 11:12:09.422,144,6B5B5B79-A063-42A5-9845-86B7C35C751C,,,,,,,,,,,,,,,,,260888.829245125,-0.082305908203125,-0.9931488037109375,-0.04803466796875,260888.814308875,0.1013748247905202,0.01231978320270656,-0.4552684536134818,,,,,,,,,,,,,,,,,,,,,,,,,,,,,,,,,192.168.137.203,10.56.9.191,1,0
2016-09-12 11:12:09.441,145,6B5B5B79-A063-42A5-9845-86B7C35C751C,,,,,,,,,,1473671529.422103,-19.46865844726562,-45.94398498535156,4.117195129394531,112.3096389770508,108.6894836425781,10,260888.848868125,-0.0669403076171875,-1.00439453125,-0.050933837890625,260888.834327875,0.09214377582008759,-0.006215817984244942,-0.502228505747067,,,,,,,,,,,,,,,,,,,,,,,,,,,,,,,,,192.168.137.203,10.56.9.191,1,0
2016-09-12 11:12:09.466,146,6B5B5B79-A063-42A5-9845-86B7C35C751C,,,,,,,,,,1473671529.45191,-18.64540100097656,-46.17280578613281,3.903617858886719,113.0481796264648,109.4280242919922,10,260888.868491125,-0.0663299560546875,-0.9930572509765625,-0.0530853271484375,260888.854316875,0.08375375312190196,-0.04250085520435655,-0.5192775304135363,,,,,,,,,,,,,,,,,,,,,,,,,,,,,,,,,192.168.137.203,10.56.9.191,1,0
2016-09-12 11:12:09.481,147,6B5B5B79-A063-42A5-9845-86B7C35C751C,,,,,,,,,,,,,,,,,260888.888114125,-0.0823211669921875,-0.9704437255859375,-0.05120849609375,260888.874336875,0.07205768224649196,-0.1030606057605404,-0.5213686445014665,,,,,,,,,,,,,,,,,,,,,,,,,,,,,,,,,192.168.137.203,10.56.9.191,1,0
2016-09-12 11:12:09.500,148,6B5B5B79-A063-42A5-9845-86B7C35C751C,,,,,,,,,,1473671529.496926,-18.200927734375,-46.547119140625,4.886909484863281,114.8449325561523,111.2247772216797,10,260888.907706125,-0.087921142578125,-0.958648681640625,-0.054473876953125,260888.894325875,0.08312844289795136,-0.1206324089489922,-0.5777086163104198,,,,,,,,,,,,,,,,,,,,,,,260888.8837285,unknown,1,2016-09-12 11:12:09.477,,,,,,,192.168.137.203,10.56.9.191,1,0
2016-09-12 11:12:09.520,149,6B5B5B79-A063-42A5-9845-86B7C35C751C,,,,,,,,,,,,,,,,,260888.927329125,-0.0766754150390625,-0.9611663818359375,-0.0540008544921875,260888.914344875,0.128422421453583,-0.1437220155999792,-0.6539226940701984,,,,,,,,,,,,,,,,,,,,,,,,,,,,,,,,,192.168.137.203,10.56.9.191,1,0
2016-09-12 11:12:09.547,150,6B5B5B79-A063-42A5-9845-86B7C35C751C,,,,,,,,,,1473671529.527071,-16.55374145507812,-46.85385131835938,4.833457946777344,115.9654006958008,112.3452453613281,10,260888.946952125,-0.0442047119140625,-0.974456787109375,-0.0501861572265625,260888.934333875,0.1246268842680021,-0.1740932373034609,-0.7157181513721791,,,,,,,,,,,,,,,,,,,,,,,,,,,,,,,,,192.168.137.203,10.56.9.191,1,0
2016-09-12 11:12:09.559,151,6B5B5B79-A063-42A5-9845-86B7C35C751C,,,,,,,,,,,,,,,,,260888.966544125,-0.0398712158203125,-0.9661865234375,-0.059814453125,260888.954353875,0.1321039753445085,-0.1996156416102353,-0.7187658729236658,,,,,,,,,,,,,,,,,,,,,,,,,,,,,,,,,192.168.137.203,10.56.9.191,1,0
2016-09-12 11:12:09.579,152,6B5B5B79-A063-42A5-9845-86B7C35C751C,,,,,,,,,,1473671529.572064,-16.10707092285156,-47.15504455566406,5.066154479980469,118.6341171264648,115.0139617919922,10,260888.986167125,-0.0419921875,-0.9465484619140625,-0.0514373779296875,260888.974342875,0.1139955451964058,-0.3334253716329396,-0.7175253724879068,,,,,,,,,,,,,,,,,,,,,,,,,,,,,,,,,192.168.137.203,10.56.9.191,1,0
2016-09-12 11:12:09.598,153,6B5B5B79-A063-42A5-9845-86B7C35C751C,,,,,,,,,,,,,,,,,260889.005789125,-0.04443359375,-0.9167022705078125,-0.03204345703125,260888.994361875,0.1069179282834112,-0.4220902601210567,-0.7674673660940537,,,,,,,,,,,,,,,,,,,,,,,,,,,,,,,,,192.168.137.203,10.56.9.191,1,0
2016-09-12 11:12:09.626,154,6B5B5B79-A063-42A5-9845-86B7C35C751C,,,,,,,,,,1473671529.60193,-14.76301574707031,-47.68424987792969,5.536109924316406,120.2556381225586,116.6354827880859,10,260889.025412125,-0.03350830078125,-0.9145965576171875,-0.0120849609375,260889.014350875,0.1545011601120749,-0.4018534316297625,-0.8650999169207947,,,,,,,,,,,,,,,,,,,,,,,,,,,,,,,,,192.168.137.203,10.56.9.191,1,0
2016-09-12 11:12:09.637,155,6B5B5B79-A063-42A5-9845-86B7C35C751C,,,,,,,,,,1473671529.625803,-13.41224670410156,-47.61480712890625,5.476051330566406,122.0694961547852,118.4493408203125,10,260889.045005125,-0.0014801025390625,-0.912322998046875,-0.0157623291015625,260889.034370875,0.1880031939930537,-0.3685442106117054,-0.9309345906480985,,,,,,,,,,,,,,,,,,,,,,,,,,,,,,,,,192.168.137.203,10.56.9.191,1,0
2016-09-12 11:12:09.657,156,6B5B5B79-A063-42A5-9845-86B7C35C751C,,,,,,,,,,1473671529.647059,-12.66659545898438,-47.9918212890625,5.862831115722656,123.9804458618164,120.3602905273438,10,260889.064627125,0.040618896484375,-0.9147186279296875,-0.022613525390625,260889.054359875,0.1648187788072599,-0.4102924564920056,-0.9630541776072171,,,,,,,,,,,,,,,,,,,,,,,,,,,,,,,,,192.168.137.203,10.56.9.191,1,0
2016-09-12 11:12:09.677,157,6B5B5B79-A063-42A5-9845-86B7C35C751C,,,,,,,,,,,,,,,,,260889.084250125,0.07989501953125,-0.9067230224609375,-0.032745361328125,,,,,,,,,,,,,,,,,,,,,,,,,,,,,,,,,,,,,192.168.137.203,10.56.9.191,1,0
2016-09-12 11:12:09.706,158,6B5B5B79-A063-42A5-9845-86B7C35C751C,,,,,,,,,,1473671529.677204,-10.869140625,-48.22357177734375,6.035484313964844,126.0194473266602,122.3992919921875,10,260889.103873125,0.1028289794921875,-0.8785858154296875,-0.024017333984375,260889.094367875,0.1075469669328879,-0.5837153761490935,-0.9930448335909265,,,,,,,,,,,,,,,,,,,,,,,,,,,,,,,,,192.168.137.203,10.56.9.191,1,0
2016-09-12 11:12:09.716,159,6B5B5B79-A063-42A5-9845-86B7C35C751C,,,,,,,,,,,,,,,,,260889.123465125,0.12139892578125,-0.869476318359375,-0.020782470703125,260889.114387875,0.04511927518812246,-0.6288572882064817,-1.045834545350695,,,,,,,,,,,,,,,,,,,,,,,,,,,,,,,,,192.168.137.203,10.56.9.191,1,0
2016-09-12 11:12:09.735,160,6B5B5B79-A063-42A5-9845-86B7C35C751C,,,,,,,,,,1473671529.722203,-9.224716186523438,-48.67860412597656,6.658256530761719,130.5734405517578,126.9532775878906,10,260889.143088125,0.1422882080078125,-0.8394775390625,-0.0418548583984375,,,,,,,,,,,,,,,,,,,,,,,,,,,,,,,,,,,,,192.168.137.203,10.56.9.191,1,0
2016-09-12 11:12:09.755,161,6B5B5B79-A063-42A5-9845-86B7C35C751C,,,,,,,,,,1473671529.751933,-6.825576782226562,-48.76312255859375,6.686561584472656,132.9798278808594,129.3596649169922,10,260889.162711125,0.1688995361328125,-0.8330535888671875,-0.06011962890625,260889.154396875,0.04888072391175037,-0.6200739166152913,-1.121517056156894,,,,,,,,,,,,,,,,,,,,,,,,,,,,,,,,,192.168.137.203,10.56.9.191,1,0
2016-09-12 11:12:09.786,162,6B5B5B79-A063-42A5-9845-86B7C35C751C,,,,,,,,,,,,,,,,,260889.182334125,0.2051849365234375,-0.8207550048828125,-0.0529022216796875,260889.174385875,0.05965587368221097,-0.6712279148335334,-1.138318939474204,,,,,,,,,,,,,,,,,,,,,,,,,,,,,,,,,192.168.137.203,10.56.9.191,1,0
2016-09-12 11:12:09.795,163,6B5B5B79-A063-42A5-9845-86B7C35C751C,,,,,,,,,,,,,,,,,260889.201956125,0.2543182373046875,-0.8219146728515625,-0.055755615234375,,,,,,,,,,,,,,,,,,,,,,,,,,,,,,,,,,,,,192.168.137.203,10.56.9.191,1,0
2016-09-12 11:12:09.814,164,6B5B5B79-A063-42A5-9845-86B7C35C751C,,,,,,,,,,1473671529.797106,-5.780960083007812,-49.21595764160156,7.227424621582031,138.0341033935547,134.4139404296875,10,260889.221579125,0.2733612060546875,-0.8030853271484375,-0.0530548095703125,260889.214393875,0.0418909913147284,-0.682307197600481,-1.183258983920964,,,,,,,,,,,,,,,,,,,,,,,,,,,,,,,,,192.168.137.203,10.56.9.191,1,0
2016-09-12 11:12:09.834,165,6B5B5B79-A063-42A5-9845-86B7C35C751C,,,,,,,,,,1473671529.827144,-4.5023193359375,-48.84622192382812,7.163993835449219,140.6310577392578,137.0108947753906,10,260889.241202125,0.3052978515625,-0.8114776611328125,-0.0530548095703125,260889.234413875,0.04964771430569319,-0.6890945299546569,-1.223671654514589,,,,,,,,,,,,,,,,,,,,,,,,,,,,,,,,,192.168.137.203,10.56.9.191,1,0
2016-09-12 11:12:09.853,166,6B5B5B79-A063-42A5-9845-86B7C35C751C,,,,,,,,,,,,,,,,,260889.260794125,0.3568878173828125,-0.825653076171875,-0.06195068359375,,,,,,,,,,,,,,,,,,,,,,,,,,,,,,,,,,,,,192.168.137.203,10.56.9.191,1,0
2016-09-12 11:12:09.873,167,6B5B5B79-A063-42A5-9845-86B7C35C751C,,,,,,,,,,,,,,,,,260889.280417125,0.3850555419921875,-0.8057098388671875,-0.0563507080078125,260889.274421875,0.07457809790214295,-0.671249752754472,-1.140290743945299,,,,,,,,,,,,,,,,,,,,,,,,,,,,,,,,,192.168.137.203,10.56.9.191,1,0
2016-09-12 11:12:09.892,168,6B5B5B79-A063-42A5-9845-86B7C35C751C,,,,,,,,,,1473671529.87213,-0.60211181640625,-48.86227416992188,6.983970642089844,145.9008178710938,142.2806549072266,15,260889.300040125,0.40069580078125,-0.788543701171875,-0.0704498291015625,260889.294410875,-0.003147323776255644,-0.6893049196807732,-1.14107690909909,,,,,,,,,,,,,,,,,,,,,,,,,,,,,,,,,192.168.137.203,10.56.9.191,1,0
2016-09-12 11:12:09.912,169,6B5B5B79-A063-42A5-9845-86B7C35C751C,,,,,,,,,,1473671529.901975,-0.15557861328125,-49.16329956054688,7.291664123535156,148.4002380371094,144.7800750732422,15,260889.319663125,0.4360809326171875,-0.7835235595703125,-0.094512939453125,,,,,,,,,,,,,,,,,,,,,,,,,,,,,,,,,,,,,192.168.137.203,10.56.9.191,1,0
2016-09-12 11:12:09.932,170,6B5B5B79-A063-42A5-9845-86B7C35C751C,,,,,,,,,,,,,,,,,260889.339286125,0.4801788330078125,-0.766937255859375,-0.12652587890625,260889.314430875,-0.01235440429687759,-0.6834456989664899,-1.19130252936133,,,,,,,,,,,,,,,,,,,,,,,,,,,,,,,,,192.168.137.203,10.56.9.191,1,0
2016-09-12 11:12:09.951,171,6B5B5B79-A063-42A5-9845-86B7C35C751C,,,,,,,,,,1473671529.947436,3.001678466796875,-48.50216674804688,6.797355651855469,153.4683685302734,149.8482055664062,15,260889.358878125,0.51055908203125,-0.745758056640625,-0.1423492431640625,260889.354438875,-0.06091661414225448,-0.7902203491832548,-1.246971650891693,,,,,,,,,,,,,,,,,,,,,,,,,,,,,,,,,192.168.137.203,10.56.9.191,1,0
2016-09-12 11:12:09.971,172,6B5B5B79-A063-42A5-9845-86B7C35C751C,,,,,,,,,,,,,,,,,260889.378501125,0.54254150390625,-0.7320404052734375,-0.0933380126953125,,,,,,,,,,,,,,,,,,,,,,,,,,,,,,,,,,,,,192.168.137.203,10.56.9.191,1,0
2016-09-12 11:12:09.990,173,6B5B5B79-A063-42A5-9845-86B7C35C751C,,,,,,,,,,1473671529.977188,4.878173828125,-48.43572998046875,6.368370056152344,156.1297912597656,152.5096282958984,15,260889.398123125,0.5644683837890625,-0.708587646484375,-0.08203125,260889.374427875,-0.06725706806551512,-0.7658582841634279,-1.253504118729548,,,,,,,,,,,,,,,,,,,,,,,,,,,,,,,,,192.168.137.203,10.56.9.191,1,0
2016-09-12 11:12:10.011,174,6B5B5B79-A063-42A5-9845-86B7C35C751C,,,,,,,,,,,,,,,,,260889.417746125,0.630615234375,-0.69183349609375,-0.120574951171875,260889.414436875,0.01597577074716734,-0.2308268243215279,-1.278606808848526,,,,,,,,,,,,,,,,,,,,,,,,,,,,,,,,,192.168.137.203,10.56.9.191,1,0
2016-09-12 11:12:10.030,175,6B5B5B79-A063-42A5-9845-86B7C35C751C,,,,,,,,,,1473671530.025632,6.304931640625,-48.21603393554688,6.532920837402344,160.7607727050781,157.1406097412109,15,260889.437369125,0.689178466796875,-0.6806793212890625,-0.1875,,,,,,,,,,,,,,,,,,,,,,,,,,,,,,,,,,,,,192.168.137.203,10.56.9.191,1,0
2016-09-12 11:12:10.049,176,6B5B5B79-A063-42A5-9845-86B7C35C751C,,,,,,,,,,,,,,,,,260889.456961125,0.72125244140625,-0.666046142578125,-0.1835784912109375,260889.434455875,0.01165292766575072,-0.2296774039950497,-1.270127037621605,,,,,,,,,,,,,,,,,,,,,,,,,,,,,,,,,192.168.137.203,10.56.9.191,1,0
2016-09-12 11:12:10.069,177,6B5B5B79-A063-42A5-9845-86B7C35C751C,1473671529.999934,51.03078704332097,13.72863446363595,136.7168,0,-1,3,10,-9999,1473671530.051986,9.7598876953125,-47.7808837890625,6.118949890136719,162.8654174804688,159.2452545166016,15,260889.476584125,0.751617431640625,-0.6402435302734375,-0.1832427978515625,260889.474464875,-0.08498786197104469,-0.3995567215056782,-1.161947569929823,,,,,,,,,,,,,,,,,,,,,,,,,,,,,,,,,192.168.137.203,10.56.9.191,1,0
2016-09-12 11:12:10.089,178,6B5B5B79-A063-42A5-9845-86B7C35C751C,,,,,,,,,,,,,,,,,260889.496207125,0.7507171630859375,-0.60009765625,-0.2255096435546875,,,,,,,,,,,,,,,,,,,,,,,,,,,,,,,,,,,,,192.168.137.203,10.56.9.191,1,0
2016-09-12 11:12:10.108,179,6B5B5B79-A063-42A5-9845-86B7C35C751C,,,,,,,,,,1473671530.105906,11.34419250488281,-46.7364501953125,6.428291320800781,166.9574584960938,163.3372955322266,15,260889.515830125,0.7579803466796875,-0.573089599609375,-0.202667236328125,260889.494453875,-0.001329450016167556,-0.3468929772654702,-1.100420825581831,,,,,,,,,,,,,,,,,,,,,,,,,,,,,,,,,192.168.137.203,10.56.9.191,1,0
2016-09-12 11:12:10.128,180,6B5B5B79-A063-42A5-9845-86B7C35C751C,,,,,,,,,,,,,,,,,260889.535422125,0.76800537109375,-0.539886474609375,-0.1021881103515625,260889.534461875,0.1073530888055301,-0.3098297643748375,-1.110015928673278,,,,,,,,,,,,,,,,,,,,,,,,,,,,,,,,,192.168.137.203,10.56.9.191,1,0
2016-09-12 11:12:10.147,181,6B5B5B79-A063-42A5-9845-86B7C35C751C,,,,,,,,,,1473671530.127194,11.57032775878906,-46.66291809082031,6.205268859863281,168.9993438720703,165.3791809082031,15,260889.555045125,0.8139495849609375,-0.5481414794921875,-0.14056396484375,,,,,,,,,,,,,,,,,,,,,,,,,,,,,,,,,,,,,192.168.137.203,10.56.9.191,1,0
2016-09-12 11:12:10.167,182,6B5B5B79-A063-42A5-9845-86B7C35C751C,,,,,,,,,,,,,,,,,260889.574668125,0.8315277099609375,-0.5636444091796875,-0.204803466796875,260889.554481875,-0.05625608223461581,-0.1977418414672555,-1.160062850826374,,,,,,,,,,,,,,,,,,,,,,,,,,,,,,,,,192.168.137.203,10.56.9.191,1,0
2016-09-12 11:12:10.187,183,6B5B5B79-A063-42A5-9845-86B7C35C751C,,,,,,,,,,1473671530.172164,15.47901916503906,-45.93069458007812,5.344001770019531,172.7786712646484,169.1585083007812,15,260889.594260125,0.8305206298828125,-0.53173828125,-0.22930908203125,260889.574470875,-0.1984806023536435,-0.4167492905549027,-1.078892630277958,,,,,,,,,,,,,,,,,,,,,,,,,,,,,,,,,192.168.137.203,10.56.9.191,1,0
2016-09-12 11:12:10.206,184,6B5B5B79-A063-42A5-9845-86B7C35C751C,,,,,,,,,,1473671530.202086,16.23554992675781,-45.2589111328125,5.271980285644531,174.5102081298828,170.8900451660156,15,260889.613883125,0.8385772705078125,-0.504486083984375,-0.2032318115234375,260889.594490875,-0.1979431764456655,-0.5328561898635233,-1.008198752825695,,,,,,,,,,,,,,,,,,,,,,,,,,,,,,,,,192.168.137.203,10.56.9.191,1,0
2016-09-12 11:12:10.226,185,6B5B5B79-A063-42A5-9845-86B7C35C751C,,,,,,,,,,,,,,,,,260889.633506125,0.879913330078125,-0.5254669189453125,-0.1359710693359375,260889.614479875,0.1525693030573315,-0.3823372545294438,-1.033630875971516,,,,,,,,,,,,,,,,,,,,,,,,,,,,,,,,,192.168.137.203,10.56.9.191,1,0
2016-09-12 11:12:10.245,186,6B5B5B79-A063-42A5-9845-86B7C35C751C,,,,,,,,,,,,,,,,,260889.653098125,0.917877197265625,-0.5450439453125,-0.1087493896484375,260889.634498875,0.3210126441081892,-0.2265079759817464,-1.061035868852867,,,,,,,,,,,,,,,,,,,,,,,,,,,,,,,,,192.168.137.203,10.56.9.191,1,0
2016-09-12 11:12:10.267,187,6B5B5B79-A063-42A5-9845-86B7C35C751C,,,,,,,,,,1473671530.247145,17.89028930664062,-44.74031066894531,5.361610412597656,178.4202728271484,174.8001098632812,15,260889.672721125,0.93487548828125,-0.545654296875,-0.1274871826171875,260889.654487875,0.1362947256358572,-0.2969568426137215,-0.9935265994321218,,,,,,,,,,,,,,,,,,,,,,,,,,,,,,,,,192.168.137.203,10.56.9.191,1,0
2016-09-12 11:12:10.285,188,6B5B5B79-A063-42A5-9845-86B7C35C751C,,,,,,,,,,1473671530.278031,19.62260437011719,-43.99757385253906,5.225212097167969,180.1311187744141,176.5109558105469,15,260889.692343125,0.91217041015625,-0.5065460205078125,-0.141998291015625,260889.674507875,-0.1510768675824511,-0.4453982459814301,-0.8682664154568989,,,,,,,,,,,,,,,,,,,,,,,,,,,,,,,,,192.168.137.203,10.56.9.191,1,0
2016-09-12 11:12:10.304,189,6B5B5B79-A063-42A5-9845-86B7C35C751C,,,,,,,,,,,,,,,,,260889.711966125,0.8868255615234375,-0.470123291015625,-0.15399169921875,260889.694496875,-0.2677238559601397,-0.5433626266799949,-0.7903535072377588,,,,,,,,,,,,,,,,,,,,,,,,,,,,,,,,,192.168.137.203,10.56.9.191,1,0
2016-09-12 11:12:10.324,190,6B5B5B79-A063-42A5-9845-86B7C35C751C,,,,,,,,,,1473671530.322223,20.22850036621094,-43.55204772949219,4.403388977050781,182.7539825439453,179.1338195800781,15,260889.731589125,0.90838623046875,-0.4615325927734375,-0.18218994140625,260889.714515875,-0.1996529258654964,-0.4136919816234917,-0.7803834310648291,,,,,,,,,,,,,,,,,,,,,,,,,,,,,,,,,192.168.137.203,10.56.9.191,1,0
2016-09-12 11:12:10.346,191,6B5B5B79-A063-42A5-9845-86B7C35C751C,,,,,,,,,,,,,,,,,260889.751181125,0.949310302734375,-0.4854888916015625,-0.192657470703125,260889.734504875,-0.03322719565648263,-0.2165948914561444,-0.8228504641233416,,,,,,,,,,,,,,,,,,,,,,,,,,,,,,,,,192.168.137.203,10.56.9.191,1,0
2016-09-12 11:12:10.363,192,6B5B5B79-A063-42A5-9845-86B7C35C751C,,,,,,,,,,1473671530.352076,22.11355590820312,-42.58567810058594,3.966850280761719,184.0589752197266,180.4388122558594,15,260889.770804125,0.966766357421875,-0.4900360107421875,-0.1658935546875,260889.754524875,-0.01963335618828216,-0.1950150308271234,-0.7897122180472677,,,,,,,,,,,,,,,,,,,,,,,,,,,,,,,,,192.168.137.203,10.56.9.191,1,0
2016-09-12 11:12:10.383,193,6B5B5B79-A063-42A5-9845-86B7C35C751C,,,,,,,,,,,,,,,,,260889.790427125,0.97222900390625,-0.4823150634765625,-0.144683837890625,260889.774543875,-0.1286194953742489,-0.2051116071518318,-0.7396799432801671,,,,,,,,,,,,,,,,,,,,,,,,,,,,,,,,,192.168.137.203,10.56.9.191,1,0
2016-09-12 11:12:10.402,194,6B5B5B79-A063-42A5-9845-86B7C35C751C,,,,,,,,,,1473671530.397111,23.24520874023438,-41.91555786132812,3.824180603027344,186.2813415527344,182.6611785888672,15,260889.810050125,0.985992431640625,-0.463104248046875,-0.163665771484375,260889.794532875,-0.2405921034066305,-0.1464576146717086,-0.7175900873023958,,,,,,,,,,,,,,,,,,,,,,,,,,,,,,,,,192.168.137.203,10.56.9.191,1,0
2016-09-12 11:12:10.426,195,6B5B5B79-A063-42A5-9845-86B7C35C751C,,,,,,,,,,,,,,,,,260889.829642125,0.97027587890625,-0.4412994384765625,-0.1778564453125,260889.814552875,-0.2889444561581091,-0.1341743167759361,-0.6595041470827865,,,,,,,,,,,,,,,,,,,,,,,,,,,,,,,,,192.168.137.203,10.56.9.191,4,0
2016-09-12 11:12:10.442,196,6B5B5B79-A063-42A5-9845-86B7C35C751C,,,,,,,,,,1473671530.428593,23.17291259765625,-41.61509704589844,3.895790100097656,187.0673980712891,183.4472351074219,15,260889.849265125,0.976470947265625,-0.4382171630859375,-0.1909027099609375,260889.834541875,-0.2560975599052898,-0.08191457407309324,-0.6379714244050598,,,,,,,,,,,,,,,,,,,,,,,,,,,,,,,,,192.168.137.203,10.56.9.191,4,0
2016-09-12 11:12:10.461,197,6B5B5B79-A063-42A5-9845-86B7C35C751C,,,,,,,,,,,,,,,,,260889.868888125,0.9864501953125,-0.4354248046875,-0.17425537109375,260889.854560875,-0.1586775293335372,-0.06737611136624166,-0.5655297143293785,,,,,,,,,,,,,,,,,,,,,,,,,,,,,,,,,192.168.137.203,10.56.9.191,4,0
2016-09-12 11:12:10.481,198,6B5B5B79-A063-42A5-9845-86B7C35C751C,,,,,,,,,,1473671530.472215,25.28230285644531,-40.87648010253906,2.713768005371094,188.4500274658203,184.8298645019531,15,260889.888480125,0.9927520751953125,-0.4174652099609375,-0.186004638671875,260889.874549875,-0.257415824644879,-0.1087887989491918,-0.4619918701014958,,,,,,,,,,,,,,,,,,,,,,,,,,,,,,,,,192.168.137.203,10.56.9.191,4,0
2016-09-12 11:12:10.506,199,6B5B5B79-A063-42A5-9845-86B7C35C751C,,,,,,,,,,,,,,,,,260889.908103125,0.9581451416015625,-0.4075927734375,-0.2038116455078125,260889.894569875,-0.4271156450980362,-0.1931974233831443,-0.4092090825605614,,,,,,,,,,,,,,,,,,,,,,,,,,,,,,,,,192.168.137.203,10.56.9.191,4,0
2016-09-12 11:12:10.520,200,6B5B5B79-A063-42A5-9845-86B7C35C751C,,,,,,,,,,1473671530.506017,25.43714904785156,-40.42787170410156,2.411735534667969,188.8211212158203,185.2009582519531,15,260889.927726125,0.937896728515625,-0.39971923828125,-0.196868896484375,260889.914558875,-0.3993846812992591,-0.1603388092215286,-0.4153985352500145,,,,,,,,,,,,,,,,,,,,,,,,,,,,,,,,,192.168.137.203,10.56.9.191,4,0
2016-09-12 11:12:10.540,201,6B5B5B79-A063-42A5-9845-86B7C35C751C,,,,,,,,,,,,,,,,,260889.947348125,0.9525909423828125,-0.4189300537109375,-0.225311279296875,260889.934577875,-0.2712173906781056,0.03878414758704196,-0.467878255058898,,,,,,,,,,,,,,,,,,,,,,,,,,,,,,,,,192.168.137.203,10.56.9.191,4,0
2016-09-12 11:12:10.559,202,6B5B5B79-A063-42A5-9845-86B7C35C751C,,,,,,,,,,1473671530.547985,26.42112731933594,-39.60829162597656,1.816093444824219,189.4921722412109,185.8720092773438,15,260889.966941125,0.97674560546875,-0.4170379638671875,-0.2395172119140625,260889.954566875,-0.2244410966597359,0.05481344787211989,-0.4578237566794128,,,,,,,,,,,,,,,,,,,,,,,,,,,,,,,,,192.168.137.203,10.56.9.191,4,0
2016-09-12 11:12:10.587,203,6B5B5B79-A063-42A5-9845-86B7C35C751C,,,,,,,,,,,,,,,,,260889.986563125,0.987518310546875,-0.421844482421875,-0.202606201171875,260889.974586875,-0.173493759742084,-0.04374055669178843,-0.435680371163731,,,,,,,,,,,,,,,,,,,,,,,,,,,,,,,,,192.168.137.203,10.56.9.191,4,0
2016-09-12 11:12:10.599,204,6B5B5B79-A063-42A5-9845-86B7C35C751C,,,,,,,,,,1473671530.587217,26.79698181152344,-39.53497314453125,1.744789123535156,189.9349670410156,186.3148040771484,15,260890.006186125,0.992950439453125,-0.4358367919921875,-0.1772613525390625,260889.994575875,-0.1587952410537187,-0.02221529086511398,-0.4078609904167633,,,,,,,,,,,,,,,,,,,,,,,,,,,,,,,,,192.168.137.203,10.56.9.191,4,0
2016-09-12 11:12:10.618,205,6B5B5B79-A063-42A5-9845-86B7C35C751C,,,,,,,,,,,,,,,,,260890.025809125,0.9872894287109375,-0.433349609375,-0.222991943359375,260890.014595875,-0.2156095218528151,0.06008810472713083,-0.3575224521243035,,,,,,,,,,,,,,,,,,,,,,,,,,,,,,,,,192.168.137.203,10.56.9.191,4,0
2016-09-12 11:12:10.638,206,6B5B5B79-A063-42A5-9845-86B7C35C751C,,,,,,,,,,1473671530.62252,26.57916259765625,-38.86006164550781,1.361549377441406,190.7411956787109,187.1210327148438,15,260890.045432125,0.9555206298828125,-0.3931732177734375,-0.2465057373046875,260890.034584875,-0.2862573266182191,-0.0009986854087797143,-0.3080033684992611,,,,,,,,,,,,,,,,,,,,,,,,,,,,,,,,,192.168.137.203,10.56.9.191,4,0
2016-09-12 11:12:10.666,207,6B5B5B79-A063-42A5-9845-86B7C35C751C,,,,,,,,,,1473671530.652093,28.00711059570312,-38.64186096191406,0.9261093139648438,190.9291381835938,187.3089752197266,15,260890.065024125,0.9599456787109375,-0.3914947509765625,-0.2803497314453125,260890.054603875,-0.1953876070636255,0.05054040590308775,-0.3562124431840936,,,,,,,,,,,,,,,,,,,,,,,,,,,,,,,,,192.168.137.203,10.56.9.191,4,0
2016-09-12 11:12:10.678,208,6B5B5B79-A063-42A5-9845-86B7C35C751C,,,,,,,,,,,,,,,,,260890.084647125,0.978851318359375,-0.3907470703125,-0.2574310302734375,260890.074592875,0.05073321876600949,0.1374007364365671,-0.3761946734751761,,,,,,,,,,,,,,,,,,,,,,,,,,,,,,,,,192.168.137.203,10.56.9.191,4,0
2016-09-12 11:12:10.697,209,6B5B5B79-A063-42A5-9845-86B7C35C751C,,,,,,,,,,,,,,,,,260890.104270125,0.9999237060546875,-0.4090118408203125,-0.230499267578125,,,,,,,,,,,,,,,,,,,,,,,,,,,,,,,,,,,,,192.168.137.203,10.56.9.191,4,0
2016-09-12 11:12:10.716,210,6B5B5B79-A063-42A5-9845-86B7C35C751C,,,,,,,,,,1473671530.697197,28.7598876953125,-38.2689208984375,1.306602478027344,191.8751983642578,188.2550354003906,15,260890.123893125,1.00689697265625,-0.407470703125,-0.1966094970703125,260890.114601875,-0.05854853130095602,-0.003988350048502667,-0.286354798314116,,,,,,,,,,,,,,,,,,,,,,,,,,,,,,,,,192.168.137.203,10.56.9.191,4,0
2016-09-12 11:12:10.747,211,6B5B5B79-A063-42A5-9845-86B7C35C751C,,,,,,,,,,1473671530.727171,28.23760986328125,-37.96665954589844,1.373023986816406,192.2894134521484,188.6692504882812,15,260890.143485125,1.006698608398438,-0.3941802978515625,-0.2384185791015625,260890.134620875,-0.133463252764885,0.04539091761931054,-0.2361201233041694,,,,,,,,,,,,,,,,,,,,,,,,,,,,,,,,,192.168.137.203,10.56.9.191,4,0
2016-09-12 11:12:10.755,212,6B5B5B79-A063-42A5-9845-86B7C35C751C,,,,,,,,,,,,,,,,,260890.163108125,0.9839324951171875,-0.3702239990234375,-0.2443695068359375,,,,,,,,,,,,,,,,,,,,,,,,,,,,,,,,,,,,,192.168.137.203,10.56.9.191,4,0
2016-09-12 11:12:10.775,213,6B5B5B79-A063-42A5-9845-86B7C35C751C,,,,,,,,,,1473671530.7723,29.36570739746094,-37.67152404785156,1.233482360839844,192.8132629394531,189.1930999755859,15,260890.182730125,0.990631103515625,-0.3708953857421875,-0.2187042236328125,260890.174629875,0.04331418460126674,-0.000321709859681572,-0.238357444935945,,,,,,,,,,,,,,,,,,,,,,,,,,,,,,,,,192.168.137.203,10.56.9.191,4,0
2016-09-12 11:12:10.795,214,6B5B5B79-A063-42A5-9845-86B7C35C751C,,,,,,,,,,,,,,,,,260890.202323125,0.9819793701171875,-0.35723876953125,-0.188385009765625,260890.194618875,0.07602525963849201,0.001144360320407049,-0.1985610298185639,,,,,,,,,,,,,,,,,,,,,,,,,,,,,,,,,192.168.137.203,10.56.9.191,4,0
2016-09-12 11:12:10.814,215,6B5B5B79-A063-42A5-9845-86B7C35C751C,,,,,,,,,,1473671530.802156,29.67066955566406,-37.14773559570312,1.232536315917969,193.2239532470703,189.6037902832031,15,260890.221945125,0.9572906494140625,-0.3448944091796875,-0.1921844482421875,,,,,,,,,,,,,,,,,,,,,,,,,,,,,,,,,,,,,192.168.137.203,10.56.9.191,4,0
2016-09-12 11:12:10.834,216,6B5B5B79-A063-42A5-9845-86B7C35C751C,,,,,,,,,,1473671530.82597,29.36943054199219,-37.29673767089844,1.155342102050781,193.481689453125,189.8615264892578,15,260890.241568125,0.944122314453125,-0.338531494140625,-0.193634033203125,260890.234626875,-0.0627893490207982,-0.03654416279417631,-0.1466411064708151,,,,,,,,,,,,,,,,,,,,,,,,,,,,,,,,,192.168.137.203,10.56.9.191,4,0
2016-09-12 11:12:10.854,217,6B5B5B79-A063-42A5-9845-86B7C35C751C,,,,,,,,,,1473671530.847315,29.67082214355469,-37.14793395996094,1.157539367675781,193.6696624755859,190.0494995117188,15,260890.261191125,0.943817138671875,-0.34332275390625,-0.2073974609375,260890.254646875,0.009756224337396282,0.003617904340872645,-0.1651628592200982,,,,,,,,,,,,,,,,,,,,,,,,,,,,,,,,,192.168.137.203,10.56.9.191,4,0
2016-09-12 11:12:10.873,218,6B5B5B79-A063-42A5-9845-86B7C35C751C,,,,,,,,,,,,,,,,,260890.280783125,0.949127197265625,-0.3439483642578125,-0.1873931884765625,,,,,,,,,,,,,,,,,,,,,,,,,,,,,,,,,,,,,192.168.137.203,10.56.9.191,4,0
2016-09-12 11:12:10.893,219,6B5B5B79-A063-42A5-9845-86B7C35C751C,,,,,,,,,,1473671530.877261,29.52395629882812,-36.77178955078125,1.377662658691406,193.9499816894531,190.3298187255859,15,260890.300406125,0.9674530029296875,-0.36370849609375,-0.16064453125,260890.294654875,0.08236571356175267,0.05325123757667941,-0.1922394843390428,,,,,,,,,,,,,,,,,,,,,,,,,,,,,,,,,192.168.137.203,10.56.9.191,4,0
2016-09-12 11:12:10.912,220,6B5B5B79-A063-42A5-9845-86B7C35C751C,,,,,,,,,,,,,,,,,260890.320029125,1.006576538085938,-0.357940673828125,-0.17633056640625,260890.314643875,0.03296460797300081,0.09418855090505043,-0.1363762183652137,,,,,,,,,,,,,,,,,,,,,,,,,,,,,,,,,192.168.137.203,10.56.9.191,4,0
2016-09-12 11:12:10.932,221,6B5B5B79-A063-42A5-9845-86B7C35C751C,,,,,,,,,,1473671530.922387,30.20033264160156,-36.62448120117188,1.384178161621094,194.5649566650391,190.9447937011719,15,260890.339652125,0.9889068603515625,-0.350006103515625,-0.1967010498046875,,,,,,,,,,,,,,,,,,,,,,,,,,,,,,,,,,,,,192.168.137.203,10.56.9.191,4,0
2016-09-12 11:12:10.952,222,6B5B5B79-A063-42A5-9845-86B7C35C751C,,,,,,,,,,,,,,,,,260890.359244125,0.9601287841796875,-0.3369903564453125,-0.200836181640625,260890.334663875,-0.07415572055325639,0.003735083428836132,-0.05091830846176999,,,,,,,,,,,,,,,,,,,,,,,,,,,,,,,,,192.168.137.203,10.56.9.191,4,0
2016-09-12 11:12:10.971,223,6B5B5B79-A063-42A5-9845-86B7C35C751C,,,,,,,,,,1473671530.95221,29.90322875976562,-36.32331848144531,1.378211975097656,194.5876922607422,190.967529296875,15,260890.378867125,0.9305877685546875,-0.318328857421875,-0.20599365234375,260890.374671875,-0.07101745152470701,-0.0227401999159686,-0.04334827306321976,,,,,,,,,,,,,,,,,,,,,,,,,,,,,,,,,192.168.137.203,10.56.9.191,4,0
2016-09-12 11:12:10.991,224,6B5B5B79-A063-42A5-9845-86B7C35C751C,,,,,,,,,,,,,,,,,260890.398490125,0.9241790771484375,-0.3214569091796875,-0.2036285400390625,,,,,,,,,,,,,,,,,,,,,,,,,,,,,,,,,,,,,192.168.137.203,10.56.9.191,4,0
2016-09-12 11:12:11.011,225,6B5B5B79-A063-42A5-9845-86B7C35C751C,,,,,,,,,,1473671530.997242,29.90251159667969,-36.39830017089844,1.378837585449219,194.649658203125,191.0294952392578,15,260890.418112125,0.9713592529296875,-0.3496246337890625,-0.2043609619140625,260890.394660875,0.0136556248054903,0.07526785662447348,-0.1173404755255453,,,,,,,,,,,,,,,,,,,,,,,,,,,,,,,,,192.168.137.203,10.56.9.191,4,0
2016-09-12 11:12:11.030,226,6B5B5B79-A063-42A5-9845-86B7C35C751C,,,,,,,,,,1473671531.027769,29.67835998535156,-36.24665832519531,1.674964904785156,194.855224609375,191.2350616455078,15,260890.437705125,0.9884033203125,-0.36572265625,-0.2178802490234375,260890.434669875,-0.01024784387462491,0.06105403325450257,-0.05358759482235641,,,,,,,,,,,,,,,,,,,,,,,,,,,,,,,,,192.168.137.203,10.56.9.191,4,0
2016-09-12 11:12:11.050,227,6B5B5B79-A063-42A5-9845-86B7C35C751C,,,,,,,,,,,,,,,,,260890.457328125,0.97601318359375,-0.35333251953125,-0.2214508056640625,,,,,,,,,,,,,,,,,,,,,,,,,,,,,,,,,,,,,192.168.137.203,10.56.9.191,4,0
2016-09-12 11:12:11.069,228,6B5B5B79-A063-42A5-9845-86B7C35C751C,,,,,,,,,,,,,,,,,260890.476950125,0.949615478515625,-0.3309173583984375,-0.2099609375,260890.454689875,-0.1236207420081701,-0.07844021411497587,0.01381328394202299,,,,,,,,,,,,,,,,,,,,,,,,,,,,,,,,,192.168.137.203,10.56.9.191,4,0
2016-09-12 11:12:11.089,229,6B5B5B79-A063-42A5-9845-86B7C35C751C,1473671530.999934,51.0307088820739,13.7285299413034,138.0688,0,-1,4,10,-9999,1473671531.074945,30.65446472167969,-36.17611694335938,1.460594177246094,194.8246765136719,191.2045135498047,15,260890.496573125,0.9575042724609375,-0.3384552001953125,-0.2226715087890625,260890.494697875,0.02781884811474971,0.0826557318044623,-0.01805383534575616,,,,,,,,,,,,,,,,,,,,,,,260890.4578865,unknown,2,2016-09-12 11:12:11.046,,,,,,,192.168.137.203,10.56.9.191,4,0
2016-09-12 11:12:11.109,230,6B5B5B79-A063-42A5-9845-86B7C35C751C,,,,,,,,,,1473671531.102254,30.42875671386719,-36.25021362304688,1.458625793457031,194.8242797851562,191.2041168212891,15,260890.516165125,0.9589385986328125,-0.3604278564453125,-0.226165771484375,,,,,,,,,,,,,,,,,,,,,,,,,,,,,,,,,,,,,192.168.137.203,10.56.9.191,4,0
2016-09-12 11:12:11.128,231,6B5B5B79-A063-42A5-9845-86B7C35C751C,,,,,,,,,,,,,,,,,260890.535788125,0.9378814697265625,-0.347747802734375,-0.22265625,260890.514686875,-0.01614674568915042,0.01192297220028475,0.02324939631639175,,,,,,,,,,,,,,,,,,,,,,,,,,,,,,,,,192.168.137.203,10.56.9.191,4,0
2016-09-12 11:12:11.148,232,6B5B5B79-A063-42A5-9845-86B7C35C751C,,,,,,,,,,,,,,,,,260890.555411125,0.9096832275390625,-0.32916259765625,-0.2067718505859375,260890.554695875,-0.03787281386201685,-0.04271497335599891,0.0807401200323683,,,,,,,,,,,,,,,,,,,,,,,,,,,,,,,,,192.168.137.203,10.56.9.191,4,0
2016-09-12 11:12:11.167,233,6B5B5B79-A063-42A5-9845-86B7C35C751C,,,,,,,,,,1473671531.147382,29.90177917480469,-36.39736938476562,1.753822326660156,194.7028198242188,191.0826568603516,15,260890.575034125,0.9070892333984375,-0.3360595703125,-0.1941986083984375,,,,,,,,,,,,,,,,,,,,,,,,,,,,,,,,,,,,,192.168.137.203,10.56.9.191,4,0
2016-09-12 11:12:11.187,234,6B5B5B79-A063-42A5-9845-86B7C35C751C,,,,,,,,,,1473671531.177213,30.42848205566406,-36.32577514648438,1.234275817871094,194.5995788574219,190.9794158935547,15,260890.594657125,0.92401123046875,-0.3515625,-0.198699951171875,260890.574714875,-0.0226629682443563,-0.0006471481448892548,0.04027285463639626,,,,,,,,,,,,,,,,,,,,,,,,,,,,,,,,,192.168.137.203,10.56.9.191,4,0
2016-09-12 11:12:11.222,235,6B5B5B79-A063-42A5-9845-86B7C35C751C,,,,,,,,,,,,,,,,,260890.614249125,0.9240875244140625,-0.337249755859375,-0.207550048828125,260890.594703875,-0.01317625580927604,0.02497352680610905,0.05309837213010886,,,,,,,,,,,,,,,,,,,,,,,,,,,,,,,,,192.168.137.203,10.56.9.191,4,0
2016-09-12 11:12:11.235,236,6B5B5B79-A063-42A5-9845-86B7C35C751C,,,,,,,,,,1473671531.222436,30.12779235839844,-36.39956665039062,1.231437683105469,194.4312438964844,190.8110809326172,15,260890.633872125,0.926513671875,-0.34405517578125,-0.2094879150390625,260890.614723875,-0.04522207320619951,-0.02161554698762814,0.06674254534291182,,,,,,,,,,,,,,,,,,,,,,,,,,,,,,,,,192.168.137.203,10.56.9.191,4,0
2016-09-12 11:12:11.246,237,6B5B5B79-A063-42A5-9845-86B7C35C751C,,,,,,,,,,,,,,,,,260890.653495125,0.927337646484375,-0.3297271728515625,-0.2233123779296875,260890.634712875,-0.03045963865167228,-0.02566728027007469,0.08610372646778788,,,,,,,,,,,,,,,,,,,,,,,,,,,,,,,,,192.168.137.203,10.56.9.191,4,0
2016-09-12 11:12:11.265,238,6B5B5B79-A063-42A5-9845-86B7C35C751C,,,,,,,,,,1473671531.252301,29.59967041015625,-36.69709777832031,1.377891540527344,194.3076782226562,190.6875152587891,15,260890.673117125,0.92498779296875,-0.31732177734375,-0.224456787109375,260890.654731875,-0.03370177096273475,-0.01816728600819354,0.09244524565548456,,,,,,,,,,,,,,,,,,,,,,,,,,,,,,,,,192.168.137.203,10.56.9.191,4,0
2016-09-12 11:12:11.285,239,6B5B5B79-A063-42A5-9845-86B7C35C751C,,,,,,,,,,,,,,,,,260890.692740125,0.91448974609375,-0.3031158447265625,-0.2292938232421875,260890.674720875,-0.07724392215331227,-0.04380979888013049,0.07712115042705962,,,,,,,,,,,,,,,,,,,,,,,,,,,,,,,,,192.168.137.203,10.56.9.191,4,0
2016-09-12 11:12:11.307,240,6B5B5B79-A063-42A5-9845-86B7C35C751C,,,,,,,,,,1473671531.297346,30.12910461425781,-36.32533264160156,0.9308242797851562,194.0513763427734,190.4312133789062,15,260890.712332125,0.921417236328125,-0.311798095703125,-0.24554443359375,260890.694740875,-0.03640860789469128,0.01302871668488565,0.02729314011556807,,,,,,,,,,,,,,,,,,,,,,,,,,,,,,,,,192.168.137.203,10.56.9.191,4,0
2016-09-12 11:12:11.324,241,6B5B5B79-A063-42A5-9845-86B7C35C751C,,,,,,,,,,,,,,,,,260890.731955125,0.9207763671875,-0.3300018310546875,-0.2156524658203125,260890.714729875,0.09151899822835501,0.08078273060980956,0.007158577010132993,,,,,,,,,,,,,,,,,,,,,,,,,,,,,,,,,192.168.137.203,10.56.9.191,4,0
2016-09-12 11:12:11.344,242,6B5B5B79-A063-42A5-9845-86B7C35C751C,,,,,,,,,,1473671531.327251,29.97340393066406,-36.92469787597656,0.9341201782226562,194.0911102294922,190.470947265625,15,260890.751578125,0.935882568359375,-0.3509979248046875,-0.183074951171875,260890.734748875,0.1074739963190197,0.04894250924904021,0.009550361985133156,,,,,,,,,,,,,,,,,,,,,,,,,,,,,,,,,192.168.137.203,10.56.9.191,4,0
2016-09-12 11:12:11.364,243,6B5B5B79-A063-42A5-9845-86B7C35C751C,,,,,,,,,,,,,,,,,260890.771201125,0.9257659912109375,-0.3503875732421875,-0.1701202392578125,260890.754737875,-0.007876565240018354,-0.03659369759045179,0.05652372992416878,,,,,,,,,,,,,,,,,,,,,,,,,,,,,,,,,192.168.137.203,10.56.9.191,4,0
2016-09-12 11:12:11.387,244,6B5B5B79-A063-42A5-9845-86B7C35C751C,,,,,,,,,,1473671531.372448,29.67483520507812,-36.77351379394531,0.9294052124023438,194.0995788574219,190.4794158935547,15,260890.790824125,0.9076385498046875,-0.349517822265625,-0.167724609375,260890.774757875,-0.08154279678491817,-0.07667933200221548,0.08249647477127556,,,,,,,,,,,,,,,,,,,,,,,,,,,,,,,,,192.168.137.203,10.56.9.191,4,0
2016-09-12 11:12:11.403,245,6B5B5B79-A063-42A5-9845-86B7C35C751C,,,,,,,,,,,,,,,,,260890.810416125,0.8967742919921875,-0.3460235595703125,-0.1841888427734375,260890.794746875,-0.09220609378959545,-0.03205061108688562,0.08439104757075792,,,,,,,,,,,,,,,,,,,,,,,,,,,,,,,,,192.168.137.203,10.56.9.191,4,0
2016-09-12 11:12:11.422,246,6B5B5B79-A063-42A5-9845-86B7C35C751C,,,,,,,,,,1473671531.402369,29.59942626953125,-36.84860229492188,0.7791824340820312,193.9324035644531,190.3122406005859,15,260890.830039125,0.8949127197265625,-0.345062255859375,-0.212188720703125,260890.814765875,-0.08468106581346756,0.01564420719145247,0.07474481178638191,,,,,,,,,,,,,,,,,,,,,,,,,,,,,,,,,192.168.137.203,10.56.9.191,4,0
2016-09-12 11:12:11.442,247,6B5B5B79-A063-42A5-9845-86B7C35C751C,,,,,,,,,,,,,,,,,260890.849662125,0.8989715576171875,-0.3650665283203125,-0.2232208251953125,260890.834754875,-0.05803880226831486,0.0336666172363457,0.07178311033810479,,,,,,,,,,,,,,,,,,,,,,,,,,,,,,,,,192.168.137.203,10.56.9.191,4,0
2016-09-12 11:12:11.468,248,6B5B5B79-A063-42A5-9845-86B7C35C751C,,,,,,,,,,1473671531.447411,29.14886474609375,-36.8460693359375,1.073982238769531,193.5940551757812,189.9738922119141,15,260890.869284125,0.917694091796875,-0.3723907470703125,-0.2211456298828125,260890.854774875,-0.06551589334482133,0.02520282497596487,0.07492457515996226,,,,,,,,,,,,,,,,,,,,,,,,,,,,,,,,,192.168.137.203,10.56.9.191,4,0
2016-09-12 11:12:11.481,249,6B5B5B79-A063-42A5-9845-86B7C35C751C,,,,,,,,,,1473671531.477526,29.90097045898438,-36.62403869628906,1.080741882324219,193.4185180664062,189.7983551025391,15,260890.888907125,0.9283599853515625,-0.3791351318359375,-0.2350616455078125,260890.874763875,-0.1059757018897411,0.005023520764216467,0.07454507470462597,,,,,,,,,,,,,,,,,,,,,,,,,,,,,,,,,192.168.137.203,10.56.9.191,4,0
2016-09-12 11:12:11.501,250,6B5B5B79-A063-42A5-9845-86B7C35C751C,,,,,,,,,,,,,,,,,260890.908530125,0.927520751953125,-0.3884124755859375,-0.22943115234375,260890.894783875,-0.06451507740716955,-0.002323608051094135,0.08354070023469562,,,,,,,,,,,,,,,,,,,,,,,,,,,,,,,,,192.168.137.203,10.56.9.191,4,0
2016-09-12 11:12:11.520,251,6B5B5B79-A063-42A5-9845-86B7C35C751C,,,,,,,,,,,,,,,,,260890.928122125,0.9197998046875,-0.3639984130859375,-0.2562103271484375,260890.914772875,-0.06580351474254988,0.003292466055664962,0.113364376018057,,,,,,,,,,,,,,,,,,,,,,,,,,,,,,,,,192.168.137.203,10.56.9.191,4,0
2016-09-12 11:12:11.547,252,6B5B5B79-A063-42A5-9845-86B7C35C751C,,,,,,,,,,1473671531.522503,29.37557983398438,-36.69734191894531,0.9253158569335938,193.0359802246094,189.4158172607422,15,260890.947745125,0.9246063232421875,-0.3660888671875,-0.27069091796875,260890.934791875,-0.07737974336890631,-0.02875521555402157,0.09520321528037062,,,,,,,,,,,,,,,,,,,,,,,,,,,,,,,,,192.168.137.203,10.56.9.191,4,0
2016-09-12 11:12:11.560,253,6B5B5B79-A063-42A5-9845-86B7C35C751C,,,,,,,,,,1473671531.552352,28.54548645019531,-37.21884155273438,0.9952011108398438,192.8594360351562,189.2392730712891,15,260890.967368125,0.9510498046875,-0.3770599365234375,-0.2550201416015625,260890.954780875,0.01642051864921057,-0.03951784846735879,0.08238142621218413,,,,,,,,,,,,,,,,,,,,,,,,,,,,,,,,,192.168.137.203,10.56.9.191,4,0
2016-09-12 11:12:11.579,254,6B5B5B79-A063-42A5-9845-86B7C35C751C,,,,,,,,,,,,,,,,,260890.986991125,0.9725494384765625,-0.3909759521484375,-0.22308349609375,260890.974800875,0.04500049820350492,-0.04672303079656817,0.105098456626669,,,,,,,,,,,,,,,,,,,,,,,,,,,,,,,,,192.168.137.203,10.56.9.191,4,0
2016-09-12 11:12:11.599,255,6B5B5B79-A063-42A5-9845-86B7C35C751C,,,,,,,,,,1473671531.597357,29.37031555175781,-37.29786682128906,0.7053756713867188,192.6696319580078,189.0494689941406,15,260891.006583125,0.986541748046875,-0.3897552490234375,-0.2295989990234375,260890.994789875,-0.03212358170075379,-0.06626903530109574,0.1661612783127689,,,,,,,,,,,,,,,,,,,,,,,,,,,,,,,,,192.168.137.203,10.56.9.191,4,0
2016-09-12 11:12:11.627,256,6B5B5B79-A063-42A5-9845-86B7C35C751C,,,,,,,,,,,,,,,,,260891.026206125,0.9947357177734375,-0.367462158203125,-0.2537689208984375,260891.014808875,-0.06229559895469751,-0.07533629986448852,0.2138398513084575,,,,,,,,,,,,,,,,,,,,,,,,,,,,,,,,,192.168.137.203,10.56.9.191,4,0
2016-09-12 11:12:11.638,257,6B5B5B79-A063-42A5-9845-86B7C35C751C,,,,,,,,,,1473671531.628174,29.06819152832031,-37.52165222167969,0.7037887573242188,192.3743591308594,188.7541961669922,15,260891.045829125,1.038742065429688,-0.3831329345703125,-0.2551422119140625,260891.034797875,0.03372201098701934,-0.03417767784953191,0.1891707238149445,,,,,,,,,,,,,,,,,,,,,,,,,,,,,,,,,192.168.137.203,10.56.9.191,4,0
2016-09-12 11:12:11.658,258,6B5B5B79-A063-42A5-9845-86B7C35C751C,,,,,,,,,,,,,,,,,260891.065451125,1.12237548828125,-0.3939971923828125,-0.2527313232421875,260891.054817875,0.1166752178852435,-6.045375674479871e-05,0.2027629653864909,,,,,,,,,,,,,,,,,,,,,,,,,,,,,,,,,192.168.137.203,10.56.9.191,4,0
2016-09-12 11:12:11.677,259,6B5B5B79-A063-42A5-9845-86B7C35C751C,,,,,,,,,,1473671531.672893,28.01382446289062,-37.96726989746094,0.7704544067382812,192.0033416748047,188.3831787109375,15,260891.085044125,1.178237915039062,-0.4058837890625,-0.23638916015625,260891.074806875,0.1192622125681465,-0.01091336783103571,0.2838503616250055,,,,,,,,,,,,,,,,,,,,,,,,,,,,,,,,,192.168.137.203,10.56.9.191,4,0
2016-09-12 11:12:11.707,260,6B5B5B79-A063-42A5-9845-86B7C35C751C,,,,,,,,,,1473671531.70245,28.01165771484375,-38.11631774902344,1.146690368652344,191.6364898681641,188.0163269042969,15,260891.104666125,1.206283569335938,-0.405181884765625,-0.2360076904296875,260891.094825875,0.07148723314099699,-0.03195020991378963,0.4070713631535548,,,,,,,,,,,,,,,,,,,,,,,,,,,,,,,,,192.168.137.203,10.56.9.191,4,0
2016-09-12 11:12:11.717,261,6B5B5B79-A063-42A5-9845-86B7C35C751C,,,,,,,,,,,,,,,,,260891.124289125,1.202316284179688,-0.401458740234375,-0.24017333984375,,,,,,,,,,,,,,,,,,,,,,,,,,,,,,,,,,,,,192.168.137.203,10.56.9.191,4,0
2016-09-12 11:12:11.736,262,6B5B5B79-A063-42A5-9845-86B7C35C751C,,,,,,,,,,,,,,,,,260891.143912125,1.16851806640625,-0.400146484375,-0.2378692626953125,260891.134834875,0.04208646733874022,-0.04659573169646238,0.6360241210159939,,,,,,,,,,,,,,,,,,,,,,,,,,,,,,,,,192.168.137.203,10.56.9.191,4,0
2016-09-12 11:12:11.756,263,6B5B5B79-A063-42A5-9845-86B7C35C751C,,,,,,,,,,1473671531.747473,26.65274047851562,-39.08628845214844,0.9893112182617188,190.1529846191406,186.5328216552734,15,260891.163504125,1.15789794921875,-0.3878326416015625,-0.206451416015625,260891.154823875,0.1075565543128122,-0.01611532038828749,0.7091444045374274,,,,,,,,,,,,,,,,,,,,,,,,,,,,,,,,,192.168.137.203,10.56.9.191,4,0
2016-09-12 11:12:11.776,264,6B5B5B79-A063-42A5-9845-86B7C35C751C,,,,,,,,,,,,,,,,,260891.183127125,1.173660278320312,-0.414520263671875,-0.1803741455078125,,,,,,,,,,,,,,,,,,,,,,,,,,,,,,,,,,,,,192.168.137.203,10.56.9.191,4,0
2016-09-12 11:12:11.795,265,6B5B5B79-A063-42A5-9845-86B7C35C751C,,,,,,,,,,1473671531.777457,26.04876708984375,-39.45831298828125,1.210533142089844,189.2584533691406,185.6382904052734,15,260891.202750125,1.182708740234375,-0.405548095703125,-0.178070068359375,260891.194831875,0.04646949786079263,0.06978627215276338,0.9033612859858541,,,,,,,,,,,,,,,,,,,,,,,,,,,,,,,,,192.168.137.203,10.56.9.191,4,0
2016-09-12 11:12:11.815,266,6B5B5B79-A063-42A5-9845-86B7C35C751C,,,,,,,,,,,,,,,,,260891.222373125,1.199462890625,-0.417449951171875,-0.2227630615234375,260891.214851875,-0.01595606335510075,0.1354896520383263,0.9920677197869764,,,,,,,,,,,,,,,,,,,,,,,,,,,,,,,,,192.168.137.203,10.56.9.191,4,0
2016-09-12 11:12:11.834,267,6B5B5B79-A063-42A5-9845-86B7C35C751C,,,,,,,,,,1473671531.822558,24.68771362304688,-40.57733154296875,1.429389953613281,186.6990356445312,183.0788726806641,15,260891.241996125,1.176620483398438,-0.4046478271484375,-0.2853546142578125,,,,,,,,,,,,,,,,,,,,,,,,,,,,,,,,,,,,,192.168.137.203,10.56.9.191,4,0
2016-09-12 11:12:11.854,268,6B5B5B79-A063-42A5-9845-86B7C35C751C,,,,,,,,,,1473671531.852402,23.55665588378906,-41.24818420410156,1.272087097167969,185.0628204345703,181.4426574707031,15,260891.261588125,1.096405029296875,-0.383148193359375,-0.2733612060546875,260891.254859875,0.03075045584270893,0.003317766086020715,1.153927726623158,,,,,,,,,,,,,,,,,,,,,,,,,,,,,,,,,192.168.137.203,10.56.9.191,4,0
2016-09-12 11:12:11.874,269,6B5B5B79-A063-42A5-9845-86B7C35C751C,,,,,,,,,,,,,,,,,260891.281211125,1.067489624023438,-0.40863037109375,-0.229736328125,260891.274848875,0.07180148614962634,0.06942008750287748,1.07528963963919,,,,,,,,,,,,,,,,,,,,,,,,,,,,,,,,,192.168.137.203,10.56.9.191,4,0
2016-09-12 11:12:11.893,270,6B5B5B79-A063-42A5-9845-86B7C35C751C,,,,,,,,,,,,,,,,,260891.300833125,1.113296508789062,-0.4665069580078125,-0.2083892822265625,,,,,,,,,,,,,,,,,,,,,,,,,,,,,,,,,,,,,192.168.137.203,10.56.9.191,4,0
2016-09-12 11:12:11.913,271,6B5B5B79-A063-42A5-9845-86B7C35C751C,,,,,,,,,,1473671531.897476,21.82044982910156,-42.36552429199219,1.561622619628906,181.9875183105469,178.3673553466797,15,260891.320456125,1.168121337890625,-0.524810791015625,-0.2368621826171875,260891.314857875,0.2523925701967715,0.3167779516588543,1.273792878862099,,,,,,,,,,,,,,,,,,,,,,,,,,,,,,,,,192.168.137.203,10.56.9.191,4,0
2016-09-12 11:12:11.932,272,6B5B5B79-A063-42A5-9845-86B7C35C751C,,,,,,,,,,1473671531.927388,20.45777893066406,-43.55839538574219,2.231086730957031,180.2772674560547,176.6571044921875,15,260891.340049125,1.171829223632812,-0.525665283203125,-0.238616943359375,260891.334877875,0.2570552326332823,0.2309847497741696,1.50437442604723,,,,,,,,,,,,,,,,,,,,,,,,,,,,,,,,,192.168.137.203,10.56.9.191,4,0
2016-09-12 11:12:11.952,273,6B5B5B79-A063-42A5-9845-86B7C35C751C,,,,,,,,,,,,,,,,,260891.359671125,1.125152587890625,-0.51519775390625,-0.2192230224609375,,,,,,,,,,,,,,,,,,,,,,,,,,,,,,,,,,,,,192.168.137.203,10.56.9.191,4,0
2016-09-12 11:12:11.972,274,6B5B5B79-A063-42A5-9845-86B7C35C751C,,,,,,,,,,,,,,,,,260891.379294125,1.060272216796875,-0.5162353515625,-0.2173309326171875,260891.354866875,0.1375836956034556,0.04900482721854806,1.675246303696131,,,,,,,,,,,,,,,,,,,,,,,,,,,,,,,,,192.168.137.203,10.56.9.191,4,0
2016-09-12 11:12:11.991,275,6B5B5B79-A063-42A5-9845-86B7C35C751C,,,,,,,,,,1473671531.972493,16.69325256347656,-44.9669189453125,2.799766540527344,175.8702545166016,172.2500915527344,15,260891.398917125,0.9564361572265625,-0.494842529296875,-0.2465362548828125,260891.394874875,0.08179632972069373,0.09245643093206289,1.872835812349034,,,,,,,,,,,,,,,,,,,,,,,,,,,,,,,,,192.168.137.203,10.56.9.191,4,0
2016-09-12 11:12:12.011,276,6B5B5B79-A063-42A5-9845-86B7C35C751C,,,,,,,,,,1473671532.002427,14.28483581542969,-45.85733032226562,2.779640197753906,173.2738037109375,169.6536407470703,15,260891.418509125,0.8854522705078125,-0.5043792724609375,-0.2440032958984375,,,,,,,,,,,,,,,,,,,,,,,,,,,,,,,,,,,,,192.168.137.203,10.56.9.191,4,0
2016-09-12 11:12:12.031,277,6B5B5B79-A063-42A5-9845-86B7C35C751C,,,,,,,,,,,,,,,,,260891.438132125,0.85125732421875,-0.5267333984375,-0.2251739501953125,260891.414894875,0.208683172489737,0.2440811107507433,1.849260178799108,,,,,,,,,,,,,,,,,,,,,,,,,,,,,,,,,192.168.137.203,10.56.9.191,4,0
2016-09-12 11:12:12.050,278,6B5B5B79-A063-42A5-9845-86B7C35C751C,,,,,,,,,,1473671532.047553,10.89602661132812,-47.19235229492188,3.352012634277344,167.9076995849609,164.2875366210938,15,260891.457755125,0.8336639404296875,-0.59161376953125,-0.207244873046875,260891.454902875,0.2584299563879812,0.3135195740651423,1.889052332858745,,,,,,,,,,,,,,,,,,,,,,,,,,,,,,,,,192.168.137.203,10.56.9.191,4,0
2016-09-12 11:12:12.070,279,6B5B5B79-A063-42A5-9845-86B7C35C751C,,,,,,,,,,,,,,,,,260891.477378125,0.7912445068359375,-0.58758544921875,-0.1831512451171875,,,,,,,,,,,,,,,,,,,,,,,,,,,,,,,,,,,,,192.168.137.203,10.56.9.191,4,0
2016-09-12 11:12:12.089,280,6B5B5B79-A063-42A5-9845-86B7C35C751C,1473671531.999934,51.0307088820739,13.7285299413034,137.5802,0,-1,3,10,-9999,1473671532.077496,8.713272094726562,-47.93272399902344,3.708198547363281,165.1007537841797,161.4805908203125,15,260891.496970125,0.70733642578125,-0.580108642578125,-0.1781463623046875,260891.474922875,0.2303394658420434,0.3108902351209071,1.943132612482766,,,,,,,,,,,,,,,,,,,,,,,,,,,,,,,,,192.168.137.203,10.56.9.191,4,0
2016-09-12 11:12:12.109,281,6B5B5B79-A063-42A5-9845-86B7C35C751C,,,,,,,,,,,,,,,,,260891.516593125,0.6032257080078125,-0.5763702392578125,-0.15264892578125,260891.514930875,0.3871186939505721,0.5017022651156674,1.909108599028132,,,,,,,,,,,,,,,,,,,,,,,,,,,,,,,,,192.168.137.203,10.56.9.191,4,0
2016-09-12 11:12:12.129,282,6B5B5B79-A063-42A5-9845-86B7C35C751C,,,,,,,,,,1473671532.122624,4.276885986328125,-48.8870849609375,4.865303039550781,159.1754302978516,155.5552673339844,15,260891.536216125,0.5733795166015625,-0.5871124267578125,-0.161041259765625,,,,,,,,,,,,,,,,,,,,,,,,,,,,,,,,,,,,,192.168.137.203,10.56.9.191,4,0
2016-09-12 11:12:12.148,283,6B5B5B79-A063-42A5-9845-86B7C35C751C,,,,,,,,,,,,,,,,,260891.555838125,0.5440673828125,-0.618804931640625,-0.1363067626953125,260891.534919875,0.5079367252275429,0.6220901958765903,1.842906675386506,,,,,,,,,,,,,,,,,,,,,,,,,,,,,,,,,192.168.137.203,10.56.9.191,4,0
2016-09-12 11:12:12.168,284,6B5B5B79-A063-42A5-9845-86B7C35C751C,,,,,,,,,,1473671532.152556,2.550384521484375,-48.95411682128906,5.296012878417969,156.2215423583984,152.6013793945312,15,260891.575431125,0.4744720458984375,-0.6417236328125,-0.0841522216796875,260891.574928875,0.2608710098431478,0.3396454506749286,1.847425527124152,,,,,,,,,,,,,,,,,,,,,,,,,,,,,,,,,192.168.137.203,10.56.9.191,4,0
2016-09-12 11:12:12.187,285,6B5B5B79-A063-42A5-9845-86B7C35C751C,,,,,,,,,,,,,,,,,260891.595053125,0.3846435546875,-0.664581298828125,-0.04620361328125,,,,,,,,,,,,,,,,,,,,,,,,,,,,,,,,,,,,,192.168.137.203,10.56.9.191,4,0
2016-09-12 11:12:12.207,286,6B5B5B79-A063-42A5-9845-86B7C35C751C,,,,,,,,,,1473671532.197718,-2.481109619140625,-49.38093566894531,6.516777038574219,150.4304962158203,146.8103332519531,15,260891.614676125,0.302001953125,-0.65899658203125,-0.0445404052734375,260891.594947875,0.2846546362742094,0.4591678540815758,1.799373578943634,,,,,,,,,,,,,,,,,,,,,,,,,,,,,,,,,192.168.137.203,10.56.9.191,4,0
2016-09-12 11:12:12.227,287,6B5B5B79-A063-42A5-9845-86B7C35C751C,,,,,,,,,,,,,,,,,260891.634299125,0.2411041259765625,-0.6842803955078125,-0.0381317138671875,260891.614936875,0.3993239612264053,0.6875592175862263,1.700822237540816,,,,,,,,,,,,,,,,,,,,,,,,,,,,,,,,,192.168.137.203,10.56.9.191,4,0
2016-09-12 11:12:12.246,288,6B5B5B79-A063-42A5-9845-86B7C35C751C,,,,,,,,,,1473671532.227566,-4.430038452148438,-49.14669799804688,7.092369079589844,147.4014587402344,143.7812957763672,15,260891.653891125,0.2360687255859375,-0.71917724609375,-0.0550079345703125,260891.634956875,0.3971683986400951,0.8465121177764776,1.561757291739059,,,,,,,,,,,,,,,,,,,,,,,,,,,,,,,,,192.168.137.203,10.56.9.191,4,0
2016-09-12 11:12:12.268,289,6B5B5B79-A063-42A5-9845-86B7C35C751C,,,,,,,,,,,,,,,,,260891.673514125,0.224090576171875,-0.7471466064453125,-0.10980224609375,260891.654945875,0.2528762002507299,0.8681167458036365,1.491910299513441,,,,,,,,,,,,,,,,,,,,,,,,,,,,,,,,,192.168.137.203,10.56.9.191,4,0
2016-09-12 11:12:12.286,290,6B5B5B79-A063-42A5-9845-86B7C35C751C,,,,,,,,,,1473671532.27261,-7.656723022460938,-49.20738220214844,7.655784606933594,141.2380676269531,137.6179046630859,15,260891.693137125,0.1790924072265625,-0.7524871826171875,-0.126861572265625,260891.674964875,0.003712979191788474,0.6366076196108302,1.492001379622722,,,,,,,,,,,,,,,,,,,,,,,,,,,,,,,,,192.168.137.203,10.56.9.191,4,0
2016-09-12 11:12:12.305,291,6B5B5B79-A063-42A5-9845-86B7C35C751C,,,,,,,,,,1473671532.302491,-10.0528564453125,-48.89900207519531,7.175605773925781,138.4183502197266,134.7981872558594,15,260891.712760125,0.1183624267578125,-0.761810302734375,-0.1205291748046875,260891.694953875,-0.09187319865333554,0.4514801069628441,1.459498563782741,,,,,,,,,,,,,,,,,,,,,,,,,,,,,,,,,192.168.137.203,10.56.9.191,4,0
2016-09-12 11:12:12.325,292,6B5B5B79-A063-42A5-9845-86B7C35C751C,,,,,,,,,,,,,,,,,260891.732382125,0.0926361083984375,-0.778594970703125,-0.0891265869140625,260891.714973875,0.06190358164223785,0.5347611489912569,1.400150551522543,,,,,,,,,,,,,,,,,,,,,,,,,,,,,,,,,192.168.137.203,10.56.9.191,4,0
2016-09-12 11:12:12.347,293,6B5B5B79-A063-42A5-9845-86B7C35C751C,,,,,,,,,,,,,,,,,260891.751975125,0.0722198486328125,-0.7916717529296875,-0.12799072265625,260891.734962875,0.234965376655511,0.7878093894484061,1.324549000813483,,,,,,,,,,,,,,,,,,,,,,,,,,,,,,,,,192.168.137.203,10.56.9.191,4,0
2016-09-12 11:12:12.364,294,6B5B5B79-A063-42A5-9845-86B7C35C751C,,,,,,,,,,1473671532.347906,-12.14974975585938,-48.43899536132812,7.822593688964844,132.8819580078125,129.2617950439453,15,260891.771598125,0.03033447265625,-0.7962188720703125,-0.1351318359375,260891.754982875,0.2524724650294739,0.7659237979262439,1.261893076163298,,,,,,,,,,,,,,,,,,,,,,,,,,,,,,,,,192.168.137.203,10.56.9.191,4,0
2016-09-12 11:12:12.384,295,6B5B5B79-A063-42A5-9845-86B7C35C751C,,,,,,,,,,1473671532.377441,-14.99986267089844,-48.50323486328125,7.565345764160156,130.1927032470703,126.5725402832031,15,260891.791220125,-0.009124755859375,-0.8063201904296875,-0.132904052734375,260891.774971875,0.1132882096108807,0.5371750382033048,1.221578409897787,,,,,,,,,,,,,,,,,,,,,,,,,,,,,,,,,192.168.137.203,10.56.9.191,1,0
2016-09-12 11:12:12.404,296,6B5B5B79-A063-42A5-9845-86B7C35C751C,,,,,,,,,,,,,,,,,260891.810843125,-0.050048828125,-0.8144073486328125,-0.0910491943359375,260891.794990875,0.04321564764093382,0.2883780017942492,1.194856517836041,,,,,,,,,,,,,,,,,,,,,,,,,,,,,,,,,192.168.137.203,10.56.9.191,1,0
2016-09-12 11:12:12.429,297,6B5B5B79-A063-42A5-9845-86B7C35C751C,,,,,,,,,,,,,,,,,260891.830466125,-0.1627197265625,-0.732330322265625,-0.0484771728515625,260891.814979875,0.0294620185073286,0.2032924018111986,1.183215308079087,,,,,,,,,,,,,,,,,,,,,,,,,,,,,,,,,192.168.137.203,10.56.9.191,1,0
2016-09-12 11:12:12.442,298,6B5B5B79-A063-42A5-9845-86B7C35C751C,,,,,,,,,,1473671532.428753,-16.26609802246094,-47.52247619628906,7.842460632324219,125.9410934448242,122.3209381103516,15,260891.850058125,-0.1653900146484375,-0.7701263427734375,-0.019622802734375,260891.834999875,0.004441620066034153,0.1819913741483089,0.9697690719797429,,,,,,,,,,,,,,,,,,,,,,,,,,,,,,,,,192.168.137.203,10.56.9.191,1,0
2016-09-12 11:12:12.462,299,6B5B5B79-A063-42A5-9845-86B7C35C751C,,,,,,,,,,1473671532.452567,-17.38926696777344,-47.4443359375,7.303871154785156,124.2689437866211,120.6487884521484,15,260891.869681125,-0.1330413818359375,-0.8206787109375,-0.07708740234375,260891.854988875,0.05151938391980088,0.4181258785223647,0.7969030193065906,,,,,,,,,,,,,,,,,,,,,,,,,,,,,,,,,192.168.137.203,10.56.9.191,1,0
2016-09-12 11:12:12.482,300,6B5B5B79-A063-42A5-9845-86B7C35C751C,,,,,,,,,,,,,,,,,260891.889304125,-0.156768798828125,-0.8437652587890625,-0.045623779296875,260891.875007875,0.1392748028956559,0.4015833870952285,0.7381864425408506,,,,,,,,,,,,,,,,,,,,,,,,,,,,,,,,,192.168.137.203,10.56.9.191,1,0
2016-09-12 11:12:12.507,301,6B5B5B79-A063-42A5-9845-86B7C35C751C,,,,,,,,,,,,,,,,,260891.908927125,-0.2432403564453125,-0.8208770751953125,0.031219482421875,260891.894996875,0.0808343959349571,0.272909296918633,0.7219201209187556,,,,,,,,,,,,,,,,,,,,,,,,,,,,,,,,,192.168.137.203,10.56.9.191,1,0
2016-09-12 11:12:12.521,302,6B5B5B79-A063-42A5-9845-86B7C35C751C,,,,,,,,,,1473671532.506897,-19.18063354492188,-46.4613037109375,7.649909973144531,121.0617904663086,117.4416351318359,15,260891.928549125,-0.2877349853515625,-0.83746337890625,0.0489959716796875,260891.915016875,-0.09264711326611257,0.2394967452502809,0.5687489434550662,,,,,,,,,,,,,,,,,,,,,,,,,,,,,,,,,192.168.137.203,10.56.9.191,1,0
2016-09-12 11:12:12.540,303,6B5B5B79-A063-42A5-9845-86B7C35C751C,,,,,,,,,,1473671532.527507,-19.70347595214844,-46.23422241210938,7.641975402832031,119.8418655395508,116.2217102050781,15,260891.948142125,-0.283660888671875,-0.878631591796875,0.0080413818359375,260891.935005875,-0.174433855606882,0.3949577086192204,0.3989841418713111,,,,,,,,,,,,,,,,,,,,,,,,,,,,,,,,,192.168.137.203,10.56.9.191,1,0
2016-09-12 11:12:12.561,304,6B5B5B79-A063-42A5-9845-86B7C35C751C,,,,,,,,,,,,,,,,,260891.967765125,-0.2188720703125,-0.962890625,-0.0516510009765625,260891.955024875,-0.03832608387954833,0.6061594325518453,0.2815195630389682,,,,,,,,,,,,,,,,,,,,,,,,,,,,,,,,,192.168.137.203,10.56.9.191,1,0
2016-09-12 11:12:12.587,305,6B5B5B79-A063-42A5-9845-86B7C35C751C,,,,,,,,,,1473671532.57259,-19.9273681640625,-46.31059265136719,6.740043640136719,117.4169235229492,113.7967681884766,15,260891.987387125,-0.1985015869140625,-0.9889678955078125,-0.057098388671875,260891.975013875,0.06383224290367323,0.6147324144169194,0.2900579238098712,,,,,,,,,,,,,,,,,,,,,,,,,,,,,,,,,192.168.137.203,10.56.9.191,1,0
2016-09-12 11:12:12.599,306,6B5B5B79-A063-42A5-9845-86B7C35C751C,,,,,,,,,,,,,,,,,260892.007010125,-0.19830322265625,-0.99896240234375,-0.0128173828125,260891.995033875,0.02221182875569688,0.4566152141767349,0.3028405644100335,,,,,,,,,,,,,,,,,,,,,,,,,,,,,,,,,192.168.137.203,10.56.9.191,1,0
2016-09-12 11:12:12.619,307,6B5B5B79-A063-42A5-9845-86B7C35C751C,,,,,,,,,,1473671532.602542,-20.82305908203125,-45.85704040527344,6.725883483886719,116.229621887207,112.6094665527344,15,260892.026633125,-0.1855316162109375,-1.004959106445312,0.0300445556640625,260892.015022875,-0.02531760721894729,0.4412221430760769,0.2511952129706719,,,,,,,,,,,,,,,,,,,,,,,,,,,,,,,,,192.168.137.203,10.56.9.191,1,0
2016-09-12 11:12:12.638,308,6B5B5B79-A063-42A5-9845-86B7C35C751C,,,,,,,,,,,,,,,,,260892.046225125,-0.1641998291015625,-1.031524658203125,0.006317138671875,260892.035041875,-0.004504470667760023,0.5253905503797042,0.1733558079976179,,,,,,,,,,,,,,,,,,,,,,,,,,,,,,,,,192.168.137.203,10.56.9.191,1,0
2016-09-12 11:12:12.667,309,6B5B5B79-A063-42A5-9845-86B7C35C751C,,,,,,,,,,1473671532.647654,-21.12286376953125,-45.93197631835938,6.273078918457031,114.239143371582,110.6189880371094,15,260892.065848125,-0.172882080078125,-1.024826049804688,-0.0239410400390625,260892.055030875,-0.02672002784898301,0.5018284989513371,0.1539906321311068,,,,,,,,,,,,,,,,,,,,,,,,,,,,,,,,,192.168.137.203,10.56.9.191,1,0
2016-09-12 11:12:12.678,310,6B5B5B79-A063-42A5-9845-86B7C35C751C,,,,,,,,,,,,,,,,,260892.085471125,-0.1481170654296875,-1.0355224609375,-0.024688720703125,260892.075050875,-0.0371116824224722,0.3761549923749339,0.1201077662142466,,,,,,,,,,,,,,,,,,,,,,,,,,,,,,,,,192.168.137.203,10.56.9.191,1,0
2016-09-12 11:12:12.698,311,6B5B5B79-A063-42A5-9845-86B7C35C751C,,,,,,,,,,1473671532.678339,-22.0960693359375,-45.77848815917969,6.110588073730469,113.3622055053711,109.7420501708984,15,260892.105094125,-0.1365509033203125,-1.065628051757812,0.0400238037109375,260892.095039875,-0.02431892181016757,0.2539952605407813,0.1184499484356723,,,,,,,,,,,,,,,,,,,,,,,,,,,,,,,,,192.168.137.203,10.56.9.191,1,0
2016-09-12 11:12:12.717,312,6B5B5B79-A063-42A5-9845-86B7C35C751C,,,,,,,,,,,,,,,,,260892.124686125,-0.1212005615234375,-1.052261352539062,0.0160675048828125,260892.115058875,-0.06286498279575645,0.2723452393997542,0.146771601364229,,,,,,,,,,,,,,,,,,,,,,,,,,,,,,,,,192.168.137.203,10.56.9.191,1,0
2016-09-12 11:12:12.747,313,6B5B5B79-A063-42A5-9845-86B7C35C751C,,,,,,,,,,1473671532.72273,-21.41976928710938,-45.78285217285156,5.443397521972656,112.188362121582,108.5682067871094,15,260892.144309125,-0.1124114990234375,-1.052139282226562,0.006256103515625,,,,,,,,,,,,,,,,,,,,,,,,,,,,,,,,,,,,,192.168.137.203,10.56.9.191,1,0
2016-09-12 11:12:12.756,314,6B5B5B79-A063-42A5-9845-86B7C35C751C,,,,,,,,,,1473671532.752643,-21.79316711425781,-45.63157653808594,5.362815856933594,111.6630477905273,108.0428924560547,15,260892.163932125,-0.139984130859375,-1.0263671875,0.0190887451171875,260892.155067875,-0.06371399855127372,0.23594009361448,0.1180760406186252,,,,,,,,,,,,,,,,,,,,,,,,,,,,,,,,,192.168.137.203,10.56.9.191,1,0
2016-09-12 11:12:12.776,315,6B5B5B79-A063-42A5-9845-86B7C35C751C,,,,,,,,,,,,,,,,,260892.183554125,-0.115447998046875,-1.027175903320312,-0.034210205078125,260892.175056875,-0.01328810857505937,0.3076366512171573,0.06724401857617374,,,,,,,,,,,,,,,,,,,,,,,,,,,,,,,,,192.168.137.203,10.56.9.191,1,0
2016-09-12 11:12:12.795,316,6B5B5B79-A063-42A5-9845-86B7C35C751C,,,,,,,,,,,,,,,,,260892.203147125,-0.097808837890625,-1.017929077148438,-0.02264404296875,,,,,,,,,,,,,,,,,,,,,,,,,,,,,,,,,,,,,192.168.137.203,10.56.9.191,1,0
2016-09-12 11:12:12.826,317,6B5B5B79-A063-42A5-9845-86B7C35C751C,,,,,,,,,,1473671532.797709,-22.46827697753906,-45.62869262695312,5.430030822753906,110.6986465454102,107.0784912109375,15,260892.222769125,-0.0793914794921875,-1.022659301757812,-0.0207977294921875,260892.215065875,-0.04514217837349713,0.06961316668190823,0.05582997646020314,,,,,,,,,,,,,,,,,,,,,,,,,,,,,,,,,192.168.137.203,10.56.9.191,1,0
2016-09-12 11:12:12.835,318,6B5B5B79-A063-42A5-9845-86B7C35C751C,,,,,,,,,,1473671532.828494,-21.71832275390625,-45.63168334960938,5.438682556152344,110.4826278686523,106.8624725341797,15,260892.242392125,-0.0743255615234375,-1.000091552734375,-0.038604736328125,260892.235084875,-0.06209799240181363,0.007903995799246171,0.04515602681116555,,,,,,,,,,,,,,,,,,,,,,,,,,,,,,,,,192.168.137.203,10.56.9.191,1,0
2016-09-12 11:12:12.854,319,6B5B5B79-A063-42A5-9845-86B7C35C751C,,,,,,,,,,,,,,,,,260892.261985125,-0.058929443359375,-0.9976654052734375,-0.0382537841796875,,,,,,,,,,,,,,,,,,,,,,,,,,,,,,,,,,,,,192.168.137.203,10.56.9.191,1,0
2016-09-12 11:12:12.874,320,6B5B5B79-A063-42A5-9845-86B7C35C751C,,,,,,,,,,1473671532.872677,-21.94287109375,-45.63134765625,5.211097717285156,110.4467239379883,106.8265686035156,15,260892.281607125,-0.0547027587890625,-0.9914703369140625,-0.03485107421875,260892.275093875,-0.0274992687839402,-0.01405802844620127,-0.02477911604653326,,,,,,,,,,,,,,,,,,,,,,,,,,,,,,,,,192.168.137.203,10.56.9.191,1,0
2016-09-12 11:12:12.894,321,6B5B5B79-A063-42A5-9845-86B7C35C751C,,,,,,,,,,,,,,,,,260892.301230125,-0.04730224609375,-0.9836883544921875,-0.032867431640625,260892.295082875,0.02809049054593779,0.007939682157853232,-0.05409492701001651,,,,,,,,,,,,,,,,,,,,,,,,,,,,,,,,,192.168.137.203,10.56.9.191,1,0
2016-09-12 11:12:12.913,322,6B5B5B79-A063-42A5-9845-86B7C35C751C,,,,,,,,,,1473671532.907245,-22.76870727539062,-45.62693786621094,5.651557922363281,110.5060348510742,106.8858795166016,15,260892.320853125,-0.029998779296875,-0.9981689453125,-0.0092315673828125,,,,,,,,,,,,,,,,,,,,,,,,,,,,,,,,,,,,,192.168.137.203,10.56.9.191,1,0
2016-09-12 11:12:12.933,323,6B5B5B79-A063-42A5-9845-86B7C35C751C,,,,,,,,,,,,,,,,,260892.340445125,0.007049560546875,-1.02557373046875,-0.0047760009765625,260892.335090875,-0.05816876452951072,-0.09081086369450293,-0.05261793786945856,,,,,,,,,,,,,,,,,,,,,,,,,,,,,,,,,192.168.137.203,10.56.9.191,1,0
2016-09-12 11:12:12.952,324,6B5B5B79-A063-42A5-9845-86B7C35C751C,,,,,,,,,,1473671532.948104,-21.79347229003906,-45.63119506835938,5.512809753417969,110.8463973999023,107.2262420654297,15,260892.360068125,0.0130462646484375,-1.0010986328125,-0.017913818359375,260892.355110875,-0.1012294161950019,-0.1337114593784804,0.009941846665374805,,,,,,,,,,,,,,,,,,,,,,,,,,,,,,,,,192.168.137.203,10.56.9.191,1,0
2016-09-12 11:12:12.972,325,6B5B5B79-A063-42A5-9845-86B7C35C751C,,,,,,,,,,,,,,,,,260892.379691125,0.003814697265625,-0.976837158203125,-0.0160064697265625,,,,,,,,,,,,,,,,,,,,,,,,,,,,,,,,,,,,,192.168.137.203,10.56.9.191,1,0
2016-09-12 11:12:12.992,326,6B5B5B79-A063-42A5-9845-86B7C35C751C,,,,,,,,,,1473671532.986901,-21.56838989257812,-45.55633544921875,5.814765930175781,111.0316848754883,107.4115295410156,15,260892.399283125,0.0061798095703125,-0.96954345703125,-0.016387939453125,260892.375099875,-0.06917560931480821,-0.1296160502541565,-0.00465121084382339,,,,,,,,,,,,,,,,,,,,,,,,,,,,,,,,,192.168.137.203,10.56.9.191,1,0
2016-09-12 11:12:13.012,327,6B5B5B79-A063-42A5-9845-86B7C35C751C,,,,,,,,,,,,,,,,,260892.418906125,0.01007080078125,-0.9587554931640625,-0.012603759765625,260892.415107875,-0.03040584279765268,-0.06330626858838258,-0.06305699671035116,,,,,,,,,,,,,,,,,,,,,,,,,,,,,,,,,192.168.137.203,10.56.9.191,1,0
2016-09-12 11:12:13.031,328,6B5B5B79-A063-42A5-9845-86B7C35C751C,,,,,,,,,,1473671533.022716,-21.49104309082031,-45.40777587890625,5.364387512207031,111.4135513305664,107.7933959960938,15,260892.438529125,0.019012451171875,-0.96484375,-0.035736083984375,,,,,,,,,,,,,,,,,,,,,,,,,,,,,,,,,,,,,192.168.137.203,10.56.9.191,1,0
2016-09-12 11:12:13.050,329,6B5B5B79-A063-42A5-9845-86B7C35C751C,,,,,,,,,,,,,,,,,260892.458152125,0.032135009765625,-0.98846435546875,-0.0085906982421875,260892.435127875,-0.008887501189812434,-0.06467406812424728,-0.09267481014144939,,,,,,,,,,,,,,,,,,,,,,,,,,,,,,,,,192.168.137.203,10.56.9.191,1,0
2016-09-12 11:12:13.070,330,6B5B5B79-A063-42A5-9845-86B7C35C751C,,,,,,,,,,1473671533.052782,-21.49288940429688,-45.63313293457031,5.216285705566406,111.6407241821289,108.0205688476562,15,260892.477744125,0.046417236328125,-0.9898529052734375,0.00177001953125,260892.475135875,-0.04321458237649779,-0.1259246426671977,-0.05875732313041823,,,,,,,,,,,,,,,,,,,,,,,,,,,,,,,,,192.168.137.203,10.56.9.191,1,0
2016-09-12 11:12:13.090,331,6B5B5B79-A063-42A5-9845-86B7C35C751C,1473671532.999934,51.0307088820739,13.7285299413034,139.979,0,-1,4,10,-9999,,,,,,,,260892.497367125,0.0422210693359375,-0.991424560546875,0.0264129638671875,,,,,,,,,,,,,,,,,,,,,,,,,,,,,,,,,,,,,192.168.137.203,10.56.9.191,1,0
2016-09-12 11:12:13.109,332,6B5B5B79-A063-42A5-9845-86B7C35C751C,,,,,,,,,,1473671533.09776,-22.02061462402344,-45.85528564453125,5.512107849121094,112.164924621582,108.5447692871094,15,260892.516989125,0.070159912109375,-1.008056640625,0.0003204345703125,260892.495124875,-0.02288880430479502,-0.07507637534209678,-0.07147311838721958,,,,,,,,,,,,,,,,,,,,,,,,,,,,,,,,,192.168.137.203,10.56.9.191,1,0
2016-09-12 11:12:13.129,333,6B5B5B79-A063-42A5-9845-86B7C35C751C,,,,,,,,,,1473671533.127609,-21.12007141113281,-45.85960388183594,5.222496032714844,112.2981338500977,108.677978515625,15,260892.536612125,0.0653839111328125,-1.0054931640625,-0.0256500244140625,260892.535133875,-0.01776488236748257,-0.01745169462328925,-0.0449224675835656,,,,,,,,,,,,,,,,,,,,,,,,,,,,,,,,,192.168.137.203,10.56.9.191,1,0
2016-09-12 11:12:13.149,334,6B5B5B79-A063-42A5-9845-86B7C35C751C,,,,,,,,,,,,,,,,,260892.556205125,0.0538330078125,-1.003311157226562,-0.009918212890625,,,,,,,,,,,,,,,,,,,,,,,,,,,,,,,,,,,,,192.168.137.203,10.56.9.191,1,0
2016-09-12 11:12:13.168,335,6B5B5B79-A063-42A5-9845-86B7C35C751C,,,,,,,,,,,,,,,,,260892.575827125,0.037872314453125,-1.008041381835938,-0.0054931640625,260892.555152875,-0.04986662614729771,-0.08308157126276597,-0.02376312009066803,,,,,,,,,,,,,,,,,,,,,,,,,,,,,,,,,192.168.137.203,10.56.9.191,1,0
2016-09-12 11:12:13.188,336,6B5B5B79-A063-42A5-9845-86B7C35C751C,,,,,,,,,,1473671533.172693,-20.89508056640625,-45.86050415039062,5.225090026855469,112.5364608764648,108.9163055419922,15,260892.595450125,0.0435028076171875,-1.002212524414062,-0.0114593505859375,260892.595161875,-0.1150549506780393,-0.05938849230876701,0.007455785787785835,,,,,,,,,,,,,,,,,,,,,,,,,,,,,,,,,192.168.137.203,10.56.9.191,1,0
2016-09-12 11:12:13.207,337,6B5B5B79-A063-42A5-9845-86B7C35C751C,,,,,,,,,,1473671533.202696,-21.34434509277344,-45.78372192382812,5.219276428222656,112.6307754516602,109.0106201171875,15,260892.615073125,0.049468994140625,-1.008819580078125,-0.0193023681640625,,,,,,,,,,,,,,,,,,,,,,,,,,,,,,,,,,,,,192.168.137.203,10.56.9.191,1,0
2016-09-12 11:12:13.228,338,6B5B5B79-A063-42A5-9845-86B7C35C751C,,,,,,,,,,,,,,,,,260892.634665125,0.0450592041015625,-0.9969635009765625,-0.045013427734375,260892.615150875,-0.07669264780766587,0.008540224983666101,0.003416303046353647,,,,,,,,,,,,,,,,,,,,,,,,,,,,,,,,,192.168.137.203,10.56.9.191,1,0
2016-09-12 11:12:13.247,339,6B5B5B79-A063-42A5-9845-86B7C35C751C,,,,,,,,,,,,,,,,,260892.654288125,0.03875732421875,-0.998443603515625,-0.0490264892578125,260892.635169875,-0.07349046291295459,0.009591374665920376,0.002381664962857863,,,,,,,,,,,,,,,,,,,,,,,,,,,,,,,,,192.168.137.203,10.56.9.191,1,0
2016-09-12 11:12:13.266,340,6B5B5B79-A063-42A5-9845-86B7C35C751C,,,,,,,,,,1473671533.247809,-21.19221496582031,-45.559326171875,5.219108581542969,112.6387252807617,109.0185699462891,15,260892.673911125,0.034576416015625,-0.998382568359375,-0.0332489013671875,260892.655189875,-0.04246942990349361,-0.02459136318968268,-0.01638163649729541,,,,,,,,,,,,,,,,,,,,,,,,,,,,,,,,,192.168.137.203,10.56.9.191,1,0
2016-09-12 11:12:13.286,341,6B5B5B79-A063-42A5-9845-86B7C35C751C,,,,,,,,,,1473671533.277615,-21.19291687011719,-45.63432312011719,5.219749450683594,112.694206237793,109.0740509033203,15,260892.693534125,0.052459716796875,-1.008575439453125,-0.047210693359375,260892.675178875,-0.01266492887998082,-0.02351837558648975,-0.01499785799489024,,,,,,,,,,,,,,,,,,,,,,,,,,,,,,,,,192.168.137.203,10.56.9.191,1,0
2016-09-12 11:12:13.306,342,6B5B5B79-A063-42A5-9845-86B7C35C751C,,,,,,,,,,,,,,,,,260892.713126125,0.0630950927734375,-1.019271850585938,-0.04669189453125,260892.695198875,-0.04347823532441563,-0.01617124677117915,-0.02387896759808648,,,,,,,,,,,,,,,,,,,,,,,,,,,,,,,,,192.168.137.203,10.56.9.191,1,0
2016-09-12 11:12:13.325,343,6B5B5B79-A063-42A5-9845-86B7C35C751C,,,,,,,,,,1473671533.322796,-21.79603576660156,-45.93154907226562,5.365333557128906,112.8017501831055,109.1815948486328,15,260892.732749125,0.0576019287109375,-1.011581420898438,-0.03125,260892.715187875,-0.004450674813740423,-0.04753103387129821,0.02567154132781882,,,,,,,,,,,,,,,,,,,,,,,,,,,,,,,,,192.168.137.203,10.56.9.191,1,0
2016-09-12 11:12:13.345,344,6B5B5B79-A063-42A5-9845-86B7C35C751C,,,,,,,,,,,,,,,,,260892.752372125,0.0506744384765625,-1.005050659179688,-0.043670654296875,260892.735206875,-0.01943681489983431,-0.01131151041400256,0.03607225064901427,,,,,,,,,,,,,,,,,,,,,,,,,,,,,,,,,192.168.137.203,10.56.9.191,1,0
2016-09-12 11:12:13.364,345,6B5B5B79-A063-42A5-9845-86B7C35C751C,,,,,,,,,,1473671533.352767,-21.11747741699219,-45.63519287109375,4.995613098144531,112.7726516723633,109.1524963378906,15,260892.771964125,0.019622802734375,-0.978363037109375,-0.0439300537109375,260892.755195875,-0.03556758162244426,-0.02596209220274646,0.05726275712666577,,,,,,,,,,,,,,,,,,,,,,,,,,,,,,,,,192.168.137.203,10.56.9.191,1,0
2016-09-12 11:12:13.387,346,6B5B5B79-A063-42A5-9845-86B7C35C751C,,,,,,,,,,,,,,,,,260892.791587125,0.0146942138671875,-0.988922119140625,-0.048583984375,260892.775215875,-0.03210973326308537,-0.03694310432547018,0.02214631499288093,,,,,,,,,,,,,,,,,,,,,,,,,,,,,,,,,192.168.137.203,10.56.9.191,1,0
2016-09-12 11:12:13.404,347,6B5B5B79-A063-42A5-9845-86B7C35C751C,,,,,,,,,,1473671533.397838,-21.869873046875,-45.85682678222656,5.138847351074219,112.7902908325195,109.1701354980469,15,260892.811209125,0.0410614013671875,-1.0123291015625,-0.0223541259765625,260892.795204875,0.07037616233421594,-0.01819711341240243,-0.01305321776691438,,,,,,,,,,,,,,,,,,,,,,,,,,,,,,,,,192.168.137.203,10.56.9.191,1,0
2016-09-12 11:12:13.423,348,6B5B5B79-A063-42A5-9845-86B7C35C751C,,,,,,,,,,,,,,,,,260892.830802125,0.0566253662109375,-1.026397705078125,0.003082275390625,260892.815223875,0.03941904519091685,-0.02977067887766878,-0.00269245586207011,,,,,,,,,,,,,,,,,,,,,,,,,,,,,,,,,192.168.137.203,10.56.9.191,1,0
