loggingTime,loggingSample,identifierForVendor,locationTimestamp_since1970,locationLatitude,locationLongitude,locationAltitude,locationSpeed,locationCourse,locationVerticalAccuracy,locationHorizontalAccuracy,locationFloor,locationHeadingTimestamp_since1970,locationHeadingX,locationHeadingY,locationHeadingZ,locationTrueHeading,locationMagneticHeading,locationHeadingAccuracy,accelerometerTimestamp_sinceReboot,accelerometerAccelerationX,accelerometerAccelerationY,accelerometerAccelerationZ,gyroTimestamp_sinceReboot,gyroRotationX,gyroRotationY,gyroRotationZ,motionTimestamp_sinceReboot,motionYaw,motionRoll,motionPitch,motionRotationRateX,motionRotationRateY,motionRotationRateZ,motionUserAccelerationX,motionUserAccelerationY,motionUserAccelerationZ,motionAttitudeReferenceFrame,motionQuaternionX,motionQuaternionY,motionQuaternionZ,motionQuaternionW,motionGravityX,motionGravityY,motionGravityZ,motionMagneticFieldX,motionMagneticFieldY,motionMagneticFieldZ,motionMagneticFieldCalibrationAccuracy,activityTimestamp_sinceReboot,activity,activityActivityConfidence,activityActivityStartDate,pedometerStartDate,pedometerNumberofSteps,pedometerDistance,pedometerFloorAscended,pedometerFloorDescended,pedometerEndDate,IP_en0,IP_pdp_ip0,deviceOrientation,state
2016-08-09 13:09:51.825,1,6B5B5B79-A063-42A5-9845-86B7C35C751C,1470740990.999974,51.02460844912662,13.68283574470662,228.6652,0,17.2265625,3,5,-9999,1470740991.797169,6.245681762695312,-22.78549957275391,-43.78299713134766,190.5851135253906,186.9892272949219,20,254988.540645,0.09637451171875,-0.0302886962890625,-1.19586181640625,254988.5177630417,-0.02136654142570573,0.005408613857841925,0.009350891219486221,,,,,,,,,,,,,,,,,,,,,,,254986.8523105,automotive,0,2016-08-09 13:09:50.124,,,,,,,0.0.0.0,10.165.73.122,5,0
2016-08-09 13:09:51.839,2,6B5B5B79-A063-42A5-9845-86B7C35C751C,,,,,,,,,,,,,,,,,254988.560268,-0.0348052978515625,-0.0359954833984375,-0.9390869140625,254988.5377820417,0.01056742320543442,0.05533675902632046,0.01062281695610807,,,,,,,,,,,,,,,,,,,,,,,,,,,,,,,,,0.0.0.0,10.165.73.122,5,0
2016-08-09 13:09:51.861,3,6B5B5B79-A063-42A5-9845-86B7C35C751C,,,,,,,,,,1470740991.842331,6.92437744140625,-22.48932647705078,-44.22769927978516,190.5721435546875,186.9762573242188,20,254988.5797904167,0.0471038818359375,-0.1022796630859375,-0.9231414794921875,254988.57766075,-0.006452306689043979,0.0425700973926986,0.008342618430782222,,,,,,,,,,,,,,,,,,,,,,,,,,,,,,,,,0.0.0.0,10.165.73.122,5,0
2016-08-09 13:09:51.881,4,6B5B5B79-A063-42A5-9845-86B7C35C751C,,,,,,,,,,1470740991.872238,6.702804565429688,-22.03733062744141,-43.78409576416016,190.5612182617188,186.96533203125,20,254988.5994134167,-0.0540924072265625,-0.080718994140625,-0.84893798828125,,,,,,,,,,,,,,,,,,,,,,,,,,,,,,,,,,,,,0.0.0.0,10.165.73.122,5,0
2016-08-09 13:09:51.898,5,6B5B5B79-A063-42A5-9845-86B7C35C751C,,,,,,,,,,,,,,,,,254988.6190054167,0.02392578125,-0.1230010986328125,-0.80645751953125,254988.59768075,-0.01283270802865582,-0.01585459691756873,0.007368966736249252,,,,,,,,,,,,,,,,,,,,,,,,,,,,,,,,,0.0.0.0,10.165.73.122,5,0
2016-08-09 13:09:51.918,6,6B5B5B79-A063-42A5-9845-86B7C35C751C,,,,,,,,,,,,,,,,,254988.6386284167,-0.02423095703125,-0.0548248291015625,-0.984619140625,254988.63768875,-0.03194994359768062,-0.04884423860481629,0.0008572715548965067,,,,,,,,,,,,,,,,,,,,,,,,,,,,,,,,,0.0.0.0,10.165.73.122,5,0
2016-08-09 13:09:51.941,7,6B5B5B79-A063-42A5-9845-86B7C35C751C,,,,,,,,,,1470740991.917248,6.173843383789062,-22.48560333251953,-43.93637847900391,190.5643920898438,186.968505859375,20,254988.6582514167,-0.000335693359375,-0.011688232421875,-0.9703216552734375,,,,,,,,,,,,,,,,,,,,,,,,,,,,,,,,,,,,,0.0.0.0,10.165.73.122,5,0
2016-08-09 13:09:51.961,8,6B5B5B79-A063-42A5-9845-86B7C35C751C,,,,,,,,,,1470740991.947225,7.226486206054688,-22.18959808349609,-43.85178375244141,190.5682983398438,186.972412109375,20,254988.6778744167,0.04461669921875,-0.009857177734375,-1.326644897460938,254988.65767775,-0.01388945034919926,0.007499994261881151,0.006227003260823274,,,,,,,,,,,,,,,,,,,,,,,,,,,,,,,,,0.0.0.0,10.165.73.122,5,0
2016-08-09 13:09:51.977,9,6B5B5B79-A063-42A5-9845-86B7C35C751C,,,,,,,,,,,,,,,,,254988.6974964167,0.0263824462890625,0.045257568359375,-1.044464111328125,254988.67769775,-0.04141268758295017,-0.05219422894002695,-0.01522795511307308,,,,,,,,,,,,,,,,,,,,,,,,,,,,,,,,,0.0.0.0,10.165.73.122,5,0
2016-08-09 13:09:51.996,10,6B5B5B79-A063-42A5-9845-86B7C35C751C,,,,,,,,,,1470740991.992402,6.1749267578125,-22.18335723876953,-43.03891754150391,190.5697326660156,186.9738464355469,20,254988.7171194167,0.07415771484375,-0.0474090576171875,-1.118194580078125,254988.69768675,-0.009662481067025492,0.01072987603192925,0.01052827473741025,,,,,,,,,,,,,,,,,,,,,,,,,,,,,,,,,0.0.0.0,10.165.73.122,5,0
2016-08-09 13:09:52.016,11,6B5B5B79-A063-42A5-9845-86B7C35C751C,,,,,,,,,,,,,,,,,254988.7367424167,-0.0464019775390625,-0.0492706298828125,-0.95257568359375,254988.71770675,-0.01276080267922368,-2.183792093864975e-05,-0.002269545880965527,,,,,,,,,,,,,,,,,,,,,,,,,,,,,,,,,0.0.0.0,10.165.73.122,5,0
2016-08-09 13:09:52.044,12,6B5B5B79-A063-42A5-9845-86B7C35C751C,,,,,,,,,,1470740992.022343,6.101287841796875,-22.26068878173828,-44.08911895751953,190.5727996826172,186.9769134521484,20,254988.7563654167,0.0125732421875,-0.1331024169921875,-0.8180999755859375,254988.73769575,-0.01284069751192606,0.009645969468267001,0.00836472266782988,,,,,,,,,,,,,,,,,,,,,,,,,,,,,,,,,0.0.0.0,10.165.73.122,5,0
2016-08-09 13:09:52.055,13,6B5B5B79-A063-42A5-9845-86B7C35C751C,,,,,,,,,,,,,,,,,254988.7759884167,-0.0569915771484375,-0.0625457763671875,-0.8762969970703125,254988.75768475,-0.008589759779941575,0.03196032992593193,0.009415073401757131,,,,,,,,,,,,,,,,,,,,,,,,,,,,,,,,,0.0.0.0,10.165.73.122,5,0
2016-08-09 13:09:52.075,14,6B5B5B79-A063-42A5-9845-86B7C35C751C,1470740991.999974,51.02460844912662,13.68283574470662,228.671,0,17.2265625,3,5,-9999,1470740992.067353,6.772964477539062,-22.63872528076172,-44.22817230224609,190.5763549804688,186.98046875,20,254988.7956104167,0.0257720947265625,-0.0632171630859375,-0.8165283203125,254988.77770375,0.009542638817971927,0.003240800730517425,0.005424592824382401,,,,,,,,,,,,,,,,,,,,,,,,,,,,,,,,,0.0.0.0,10.165.73.122,5,0
2016-08-09 13:09:52.095,15,6B5B5B79-A063-42A5-9845-86B7C35C751C,,,,,,,,,,,,,,,,,254988.8152334167,0.0163116455078125,-0.027252197265625,-1.102584838867188,254988.79769275,-0.00970242848337668,0.03096377504602428,0.01580293159242119,,,,,,,,,,,,,,,,,,,,,,,,,,,,,,,,,0.0.0.0,10.165.73.122,5,0
2016-08-09 13:09:52.122,16,6B5B5B79-A063-42A5-9845-86B7C35C751C,,,,,,,,,,1470740992.097229,6.0235595703125,-22.48462677001953,-43.78810882568359,190.5656127929688,186.9697265625,20,254988.8348564167,0.030059814453125,0.0650634765625,-1.030792236328125,254988.81771275,-0.0223673573633575,-0.04247182674847468,0.0009427590258880503,,,,,,,,,,,,,,,,,,,,,,,,,,,,,,,,,0.0.0.0,10.165.73.122,5,0
2016-08-09 13:09:52.134,17,6B5B5B79-A063-42A5-9845-86B7C35C751C,,,,,,,,,,,,,,,,,254988.8544794167,0.0999755859375,0.0123748779296875,-1.279541015625,254988.83770175,-0.0170836457606403,0.007499994261881151,0.006192648482761252,,,,,,,,,,,,,,,,,,,,,,,,,,,,,,,,,0.0.0.0,10.165.73.122,5,0
2016-08-09 13:09:52.154,18,6B5B5B79-A063-42A5-9845-86B7C35C751C,,,,,,,,,,1470740992.142351,7.14892578125,-22.48966217041016,-44.00012969970703,190.5704650878906,186.9745788574219,20,254988.8741024167,0.0063629150390625,0.01141357421875,-0.9799652099609375,254988.85772075,-0.03929920294186329,-0.05111032237636471,-0.01307585463618005,,,,,,,,,,,,,,,,,,,,,,,,,,,,,,,,,0.0.0.0,10.165.73.122,5,0
2016-08-09 13:09:52.173,19,6B5B5B79-A063-42A5-9845-86B7C35C751C,,,,,,,,,,,,,,,,,254988.8936944167,0.0729827880859375,-0.1069793701171875,-0.8978271484375,254988.87770975,-0.01710761421045101,0.005408613857841925,0.009396697590235583,,,,,,,,,,,,,,,,,,,,,,,,,,,,,,,,,0.0.0.0,10.165.73.122,5,0
2016-08-09 13:09:52.204,20,6B5B5B79-A063-42A5-9845-86B7C35C751C,,,,,,,,,,1470740992.172316,6.924606323242188,-22.26189422607422,-43.25463104248047,190.5744018554688,186.978515625,20,254988.9133474167,-0.05926513671875,-0.066314697265625,-0.9039764404296875,254988.89772975,-0.004258927215254718,0.003186205928170801,-5.459480234662438e-05,,,,,,,,,,,,,,,,,,,,,,,,,,,,,,,,,0.0.0.0,10.165.73.122,5,0
2016-08-09 13:09:52.212,21,6B5B5B79-A063-42A5-9845-86B7C35C751C,,,,,,,,,,,,,,,,,254988.9329394167,0.0006256103515625,-0.136474609375,-0.8674468994140625,254988.91771875,-0.0107112339042987,0.0053976948973726,0.008399343762000909,,,,,,,,,,,,,,,,,,,,,,,,,,,,,,,,,0.0.0.0,10.165.73.122,5,0
2016-08-09 13:09:52.232,22,6B5B5B79-A063-42A5-9845-86B7C35C751C,,,,,,,,,,1470740992.217265,5.724411010742188,-22.33269500732422,-43.49283599853516,190.5688629150391,186.9729766845703,20,254988.9525624167,-0.031036376953125,-0.08056640625,-0.955322265625,254988.93770775,0.01063133907159632,0.03719424041626466,0.002144110993622795,,,,,,,,,,,,,,,,,,,,,,,,,,,,,,,,,0.0.0.0,10.165.73.122,5,0
2016-08-09 13:09:52.251,23,6B5B5B79-A063-42A5-9845-86B7C35C751C,,,,,,,,,,1470740992.247317,6.703948974609375,-21.96289825439453,-44.00971221923828,190.5764617919922,186.9805755615234,20,254988.9721854167,0.030670166015625,-0.04034423828125,-0.8800811767578125,254988.95772675,0.009518670368161213,0.0117701067537142,0.00859934715986586,,,,,,,,,,,,,,,,,,,,,,,,,,,,,,,,,0.0.0.0,10.165.73.122,5,0
2016-08-09 13:09:52.281,24,6B5B5B79-A063-42A5-9845-86B7C35C751C,,,,,,,,,,,,,,,,,254988.9918084167,0.0171356201171875,-0.0108795166015625,-1.163436889648438,254988.97771575,0.004139084966201152,0.04052239283053668,0.01592543700256484,,,,,,,,,,,,,,,,,,,,,,,,,,,,,,,,,0.0.0.0,10.165.73.122,5,0
2016-08-09 13:09:52.291,25,6B5B5B79-A063-42A5-9845-86B7C35C751C,,,,,,,,,,,,,,,,,254989.0114314167,0.005645751953125,0.0471649169921875,-1.013153076171875,254988.99773575,-0.009630523133944541,-0.02861033959072126,0.006372411856341601,,,,,,,,,,,,,,,,,,,,,,,,,,,,,,,,,0.0.0.0,10.165.73.122,5,0
2016-08-09 13:09:52.310,26,6B5B5B79-A063-42A5-9845-86B7C35C751C,,,,,,,,,,1470740992.292293,6.846923828125,-22.63770294189453,-43.70233917236328,190.5704345703125,186.9745483398438,20,254989.0310534167,0.0634918212890625,-0.0070037841796875,-1.268798828125,254989.01772475,-0.02990836430602588,0.0118137825955915,0.01243989176786913,,,,,,,,,,,,,,,,,,,,,,,,,,,,,,,,,0.0.0.0,10.165.73.122,5,0
2016-08-09 13:09:52.330,27,6B5B5B79-A063-42A5-9845-86B7C35C751C,,,,,,,,,,1470740992.322366,6.773788452148438,-22.41204071044922,-43.55509185791016,190.5668029785156,186.9709167480469,20,254989.0506764167,0.004241943359375,0.0161895751953125,-0.9692230224609375,254989.03774375,-0.04468677782709359,-0.06270572576256971,-0.004572381275557044,,,,,,,,,,,,,,,,,,,,,,,,,,,,,,,,,0.0.0.0,10.165.73.122,5,0
2016-08-09 13:09:52.355,28,6B5B5B79-A063-42A5-9845-86B7C35C751C,,,,,,,,,,,,,,,,,254989.0702994167,0.0778045654296875,-0.0812530517578125,-0.96343994140625,254989.05773275,-0.01711560369372125,0.01391608196010005,0.01043932515700161,,,,,,,,,,,,,,,,,,,,,,,,,,,,,,,,,0.0.0.0,10.165.73.122,5,0
2016-08-09 13:09:52.369,29,6B5B5B79-A063-42A5-9845-86B7C35C751C,,,,,,,,,,1470740992.367414,6.776809692382812,-22.18819427490234,-44.00696563720703,190.5695495605469,186.9736633300781,20,254989.0899224167,-0.070953369140625,-0.095550537109375,-0.8823699951171875,254989.07775275,-0.0414606244825716,-0.05106664653448741,-0.008834504284119856,,,,,,,,,,,,,,,,,,,,,,,,,,,,,,,,,0.0.0.0,10.165.73.122,5,0
2016-08-09 13:09:52.389,30,6B5B5B79-A063-42A5-9845-86B7C35C751C,,,,,,,,,,,,,,,,,254989.1095454167,0.007904052734375,-0.1239471435546875,-0.7907257080078125,254989.09774175,-0.003226153344521989,0.0159747054827313,0.004185956601386547,,,,,,,,,,,,,,,,,,,,,,,,,,,,,,,,,0.0.0.0,10.165.73.122,5,0
2016-08-09 13:09:52.443,31,6B5B5B79-A063-42A5-9845-86B7C35C751C,,,,,,,,,,1470740992.397094,6.922515869140625,-22.63875579833984,-44.00145721435547,190.568603515625,186.9727172851562,20,254989.1291674167,-0.0195465087890625,-0.05487060546875,-1.007125854492188,254989.11773075,0.0085737808134011,0.01373045963212153,-0.007408914152600441,,,,,,,,,,,,,,,,,,,,,,,,,,,,,,,,,0.0.0.0,10.165.73.122,5,0
2016-08-09 13:09:52.443,32,6B5B5B79-A063-42A5-9845-86B7C35C751C,,,,,,,,,,1470740992.442306,6.698928833007812,-22.41193389892578,-43.63095855712891,190.5746612548828,186.9787750244141,20,254989.1487904167,0.0187835693359375,0.0185699462890625,-1.005279541015625,254989.13774975,0.004203000832363054,0.007510913222350476,0.007487743720866786,,,,,,,,,,,,,,,,,,,,,,,,,,,,,,,,,0.0.0.0,10.165.73.122,5,0
2016-08-09 13:09:52.448,33,6B5B5B79-A063-42A5-9845-86B7C35C751C,,,,,,,,,,,,,,,,,254989.1684134167,0.0961761474609375,-0.0185546875,-1.300460815429688,254989.15773875,-0.002217347923599974,0.04260285427410658,0.01158661495460774,,,,,,,,,,,,,,,,,,,,,,,,,,,,,,,,,0.0.0.0,10.165.73.122,5,0
2016-08-09 13:09:52.467,34,6B5B5B79-A063-42A5-9845-86B7C35C751C,,,,,,,,,,,,,,,,,254989.1880364167,0.0385894775390625,0.0290374755859375,-1.053390502929688,254989.17775875,-0.009622533650674303,-0.02755918990846698,0.005303418994783795,,,,,,,,,,,,,,,,,,,,,,,,,,,,,,,,,0.0.0.0,10.165.73.122,5,0
2016-08-09 13:09:52.487,35,6B5B5B79-A063-42A5-9845-86B7C35C751C,,,,,,,,,,1470740992.472299,7.376174926757812,-22.18981170654297,-43.70005035400391,190.5845184326172,186.9886322021484,20,254989.2076284167,0.0969696044921875,-0.0732269287109375,-0.976715087890625,,,,,,,,,,,,,,,,,,,,,,,,,,,,,,,,,,,,,0.0.0.0,10.165.73.122,5,0
2016-08-09 13:09:52.512,36,6B5B5B79-A063-42A5-9845-86B7C35C751C,,,,,,,,,,,,,,,,,254989.2272514167,-0.0533905029296875,-0.085968017578125,-0.8535614013671875,254989.21776775,-0.06385195029573981,-0.09031951047338331,-0.004702343536752911,,,,,,,,,,,,,,,,,,,,,,,,,,,,,,,,,0.0.0.0,10.165.73.122,5,0
2016-08-09 13:09:52.526,37,6B5B5B79-A063-42A5-9845-86B7C35C751C,,,,,,,,,,1470740992.517261,6.024658203125,-22.25832366943359,-43.26502227783203,190.5806274414062,186.9847412109375,20,254989.2468744167,0.0088348388671875,-0.115264892578125,-0.7848358154296875,254989.23775675,-0.01814837756445398,-0.02117585909165606,0.006260292774449265,,,,,,,,,,,,,,,,,,,,,,,,,,,,,,,,,0.0.0.0,10.165.73.122,5,0
2016-08-09 13:09:52.546,38,6B5B5B79-A063-42A5-9845-86B7C35C751C,,,,,,,,,,,,,,,,,254989.2664974167,-0.0027618408203125,-0.0815277099609375,-0.9668731689453125,,,,,,,,,,,,,,,,,,,,,,,,,,,,,,,,,,,,,0.0.0.0,10.165.73.122,5,0
2016-08-09 13:09:52.565,39,6B5B5B79-A063-42A5-9845-86B7C35C751C,,,,,,,,,,1470740992.547258,7.073928833007812,-22.48935699462891,-44.00098419189453,190.5757293701172,186.9798431396484,20,254989.2861194167,0.0216217041015625,0.028778076171875,-0.9897308349609375,254989.27776475,-0.01492222421993199,-0.03290229000349296,0.00206261826426637,,,,,,,,,,,,,,,,,,,,,,,,,,,,,,,,,0.0.0.0,10.165.73.122,5,0
2016-08-09 13:09:52.602,40,6B5B5B79-A063-42A5-9845-86B7C35C751C,,,,,,,,,,1470740992.592438,6.772232055664062,-22.63777923583984,-43.85320281982422,190.5848236083984,186.9889373779297,20,254989.3057424167,0.0939178466796875,-0.0174102783203125,-1.293411254882812,254989.29775375,0.002065547741465457,0.0075218321828198,0.008530903919850823,,,,,,,,,,,,,,,,,,,,,,,,,,,,,,,,,0.0.0.0,10.165.73.122,5,0
2016-08-09 13:09:52.605,41,6B5B5B79-A063-42A5-9845-86B7C35C751C,,,,,,,,,,,,,,,,,254989.3253654167,-0.001861572265625,0.00738525390625,-1.015228271484375,,,,,,,,,,,,,,,,,,,,,,,,,,,,,,,,,,,,,0.0.0.0,10.165.73.122,5,0
2016-08-09 13:09:52.624,42,6B5B5B79-A063-42A5-9845-86B7C35C751C,,,,,,,,,,1470740992.622314,7.450332641601562,-22.34085845947266,-43.99791717529297,190.5874328613281,186.9915466308594,20,254989.3449884167,0.0510101318359375,-0.1127166748046875,-0.9385986328125,254989.33776275,-0.01609880878952899,0.002298840652956398,0.01687938130503122,,,,,,,,,,,,,,,,,,,,,,,,,,,,,,,,,0.0.0.0,10.165.73.122,5,0
2016-08-09 13:09:52.644,43,6B5B5B79-A063-42A5-9845-86B7C35C751C,,,,,,,,,,,,,,,,,254989.3646114167,-0.065399169921875,-0.0902252197265625,-0.8967437744140625,254989.35778175,-0.05005038426251317,-0.0913269843137603,0.0007797735671752009,,,,,,,,,,,,,,,,,,,,,,,,,,,,,,,,,0.0.0.0,10.165.73.122,5,0
2016-08-09 13:09:52.680,44,6B5B5B79-A063-42A5-9845-86B7C35C751C,,,,,,,,,,1470740992.667473,6.772079467773438,-22.63759613037109,-43.77820587158203,190.5914001464844,186.9955139160156,20,254989.3842334167,-0.043853759765625,-0.0855255126953125,-0.858734130859375,,,,,,,,,,,,,,,,,,,,,,,,,,,,,,,,,,,,,0.0.0.0,10.165.73.122,5,0
2016-08-09 13:09:52.683,45,6B5B5B79-A063-42A5-9845-86B7C35C751C,,,,,,,,,,,,,,,,,254989.4038564167,-0.002349853515625,-0.043426513671875,-1.147262573242188,254989.39779075,-0.01267291836325106,-0.04262469219504523,-0.01387906402094795,,,,,,,,,,,,,,,,,,,,,,,,,,,,,,,,,0.0.0.0,10.165.73.122,5,0
2016-08-09 13:09:52.703,46,6B5B5B79-A063-42A5-9845-86B7C35C751C,,,,,,,,,,1470740992.697241,6.997207641601562,-22.63867950439453,-43.85059356689453,190.6006317138672,187.0047454833984,20,254989.4234794167,0.0281829833984375,0.0494384765625,-1.051956176757812,254989.41777975,-0.006436327722503503,-0.02329999637710325,0.006392119248408187,,,,,,,,,,,,,,,,,,,,,,,,,,,,,,,,,0.0.0.0,10.165.73.122,5,0
2016-08-09 13:09:52.722,47,6B5B5B79-A063-42A5-9845-86B7C35C751C,,,,,,,,,,,,,,,,,254989.4430714167,0.114349365234375,-0.0182342529296875,-1.194046020507812,,,,,,,,,,,,,,,,,,,,,,,,,,,,,,,,,,,,,0.0.0.0,10.165.73.122,5,0
2016-08-09 13:09:52.763,48,6B5B5B79-A063-42A5-9845-86B7C35C751C,,,,,,,,,,1470740992.742396,6.324127197265625,-22.48656463623047,-44.08463287353516,190.6004180908203,187.0045318603516,20,254989.4626944167,-0.0272674560546875,-0.0159759521484375,-0.9449005126953125,254989.43779875,0.01590706119104329,0.0117701067537142,0.008668056715989905,,,,,,,,,,,,,,,,,,,,,,,,,,,,,,,,,0.0.0.0,10.165.73.122,5,0
2016-08-09 13:09:52.764,49,6B5B5B79-A063-42A5-9845-86B7C35C751C,,,,,,,,,,,,,,,,,254989.4823174167,0.027191162109375,-0.1307220458984375,-0.972412109375,254989.47780775,0.001961684458952367,0.01616032781070982,0.02236629209892147,,,,,,,,,,,,,,,,,,,,,,,,,,,,,,,,,0.0.0.0,10.165.73.122,5,0
2016-08-09 13:09:52.781,50,6B5B5B79-A063-42A5-9845-86B7C35C751C,,,,,,,,,,1470740992.772239,6.700149536132812,-22.48937225341797,-44.60527801513672,190.588134765625,186.9922485351562,20,254989.5019404167,-0.046539306640625,-0.064910888671875,-0.9079132080078125,,,,,,,,,,,,,,,,,,,,,,,,,,,,,,,,,,,,,0.0.0.0,10.165.73.122,5,0
2016-08-09 13:09:52.801,51,6B5B5B79-A063-42A5-9845-86B7C35C751C,,,,,,,,,,,,,,,,,254989.5215634167,-0.0503997802734375,-0.10205078125,-0.813690185546875,254989.49779675,-0.02782683759801994,-0.06671378320313896,0.01907595657212858,,,,,,,,,,,,,,,,,,,,,,,,,,,,,,,,,0.0.0.0,10.165.73.122,5,0
2016-08-09 13:09:52.822,52,6B5B5B79-A063-42A5-9845-86B7C35C751C,,,,,,,,,,1470740992.817946,6.098281860351562,-22.56047821044922,-44.01160430908203,190.5681610107422,186.9722747802734,20,254989.5411854167,-0.038330078125,-0.052337646484375,-1.08697509765625,254989.53780475,-0.05953709669759343,-0.08933387455394499,-0.01212191033371367,,,,,,,,,,,,,,,,,,,,,,,,,,,,,,,,,0.0.0.0,10.165.73.122,5,0
2016-08-09 13:09:52.844,53,6B5B5B79-A063-42A5-9845-86B7C35C751C,,,,,,,,,,,,,,,,,254989.5608084167,-0.0162506103515625,0.0735321044921875,-0.978759765625,,,,,,,,,,,,,,,,,,,,,,,,,,,,,,,,,,,,,0.0.0.0,10.165.73.122,5,0
2016-08-09 13:09:52.860,54,6B5B5B79-A063-42A5-9845-86B7C35C751C,,,,,,,,,,1470740992.847273,7.000839233398438,-22.41556549072266,-44.60245513916016,190.5813140869141,186.9854278564453,20,254989.5804314167,0.070343017578125,0.028076171875,-1.205307006835938,254989.55779375,-0.0330146754014943,-0.02654079710762068,0.0007843009410283357,,,,,,,,,,,,,,,,,,,,,,,,,,,,,,,,,0.0.0.0,10.165.73.122,5,0
2016-08-09 13:09:52.879,55,6B5B5B79-A063-42A5-9845-86B7C35C751C,,,,,,,,,,,,,,,,,254989.6000544167,-0.0152130126953125,0.00885009765625,-0.995635986328125,254989.59780275,0.01276879216249392,-0.002113218324977875,0.001209341451004982,,,,,,,,,,,,,,,,,,,,,,,,,,,,,,,,,0.0.0.0,10.165.73.122,5,0
2016-08-09 13:09:52.901,56,6B5B5B79-A063-42A5-9845-86B7C35C751C,,,,,,,,,,1470740992.892505,6.776275634765625,-22.33930206298828,-44.45568084716797,190.6053466796875,187.0094604492188,20,254989.6196774167,0.0303802490234375,-0.0831451416015625,-0.8977813720703125,,,,,,,,,,,,,,,,,,,,,,,,,,,,,,,,,,,,,0.0.0.0,10.165.73.122,5,0
2016-08-09 13:09:52.927,57,6B5B5B79-A063-42A5-9845-86B7C35C751C,,,,,,,,,,1470740992.922329,5.797286987304688,-22.63391876220703,-43.86443328857422,190.6051788330078,187.0092926025391,20,254989.6392994167,-0.0438385009765625,-0.0419464111328125,-0.9229278564453125,254989.61782175,0.0009608685213005891,0.03625228033870363,0.01377067336458172,,,,,,,,,,,,,,,,,,,,,,,,,,,,,,,,,0.0.0.0,10.165.73.122,5,0
2016-08-09 13:09:52.938,58,6B5B5B79-A063-42A5-9845-86B7C35C751C,,,,,,,,,,,,,,,,,254989.6589224167,-0.03546142578125,-0.0390625,-0.86505126953125,254989.65783075,-0.01505005595225579,0.01718963957202545,0.01898194698564878,,,,,,,,,,,,,,,,,,,,,,,,,,,,,,,,,0.0.0.0,10.165.73.122,5,0
2016-08-09 13:09:52.958,59,6B5B5B79-A063-42A5-9845-86B7C35C751C,,,,,,,,,,,,,,,,,254989.6785454167,0.0262908935546875,-0.0367889404296875,-1.26544189453125,,,,,,,,,,,,,,,,,,,,,,,,,,,,,,,,,,,,,0.0.0.0,10.165.73.122,5,0
2016-08-09 13:09:52.981,60,6B5B5B79-A063-42A5-9845-86B7C35C751C,,,,,,,,,,1470740992.967514,6.775283813476562,-22.48986053466797,-44.67942047119141,190.5935516357422,186.9976654052734,20,254989.6981684167,0.0068206787109375,0.0534820556640625,-1.06365966796875,254989.67781975,-0.06703815622391061,-0.07864767436389304,-0.005834985948363611,,,,,,,,,,,,,,,,,,,,,,,,,,,,,,,,,0.0.0.0,10.165.73.122,5,0
2016-08-09 13:09:53.002,61,6B5B5B79-A063-42A5-9845-86B7C35C751C,,,,,,,,,,1470740992.997271,6.625869750976562,-22.41408538818359,-44.60677337646484,190.5895385742188,186.99365234375,20,254989.7177604167,0.088623046875,-0.0387725830078125,-1.120529174804688,254989.69780875,-0.02775493224858781,-0.02645344542386608,0.009370065979334792,,,,,,,,,,,,,,,,,,,,,,,,,,,,,,,,,0.0.0.0,10.165.73.122,5,0
2016-08-09 13:09:53.017,62,6B5B5B79-A063-42A5-9845-86B7C35C751C,,,,,,,,,,,,,,,,,254989.7373834167,-0.032135009765625,-0.054901123046875,-0.9763031005859375,254989.71782875,0.02347203658352237,0.02967240823344485,-0.006226470628605259,,,,,,,,,,,,,,,,,,,,,,,,,,,,,,,,,0.0.0.0,10.165.73.122,5,0
2016-08-09 13:09:53.036,63,6B5B5B79-A063-42A5-9845-86B7C35C751C,,,,,,,,,,,,,,,,,254989.7570064167,-0.010650634765625,-0.11480712890625,-0.829559326171875,254989.73781775,0.01057541268870466,-0.004150003926670477,0.009720804294898227,,,,,,,,,,,,,,,,,,,,,,,,,,,,,,,,,0.0.0.0,10.165.73.122,5,0
2016-08-09 13:09:53.056,64,6B5B5B79-A063-42A5-9845-86B7C35C751C,,,,,,,,,,1470740993.042512,7.07568359375,-22.41568756103516,-44.52660369873047,190.5850067138672,186.9891204833984,20,254989.7766284167,-0.0882720947265625,-0.018798828125,-0.961395263671875,254989.75783675,0.02435301027212058,0.05753732903505293,0.01822827239715635,,,,,,,,,,,,,,,,,,,,,,,,,,,,,,,,,0.0.0.0,10.165.73.122,5,0
2016-08-09 13:09:53.081,65,6B5B5B79-A063-42A5-9845-86B7C35C751C,1470740992.999973,51.02460844912662,13.68283574470662,228.2319,0,17.2265625,3,5,-9999,,,,,,,,254989.7962514167,-0.032196044921875,-0.0371856689453125,-0.8513946533203125,254989.77782575,-0.01501809801917484,-0.009405752337941853,0.01479093037819108,,,,,,,,,,,,,,,,,,,,,,,,,,,,,,,,,0.0.0.0,10.165.73.122,5,0
2016-08-09 13:09:53.095,66,6B5B5B79-A063-42A5-9845-86B7C35C751C,,,,,,,,,,1470740993.07237,6.551376342773438,-22.18672943115234,-43.78456878662109,190.5807800292969,186.9848937988281,20,254989.8158744167,0.06512451171875,-0.0371856689453125,-1.200439453125,254989.79784575,-0.007397196243804092,0.05833734262651274,-0.007703726085272212,,,,,,,,,,,,,,,,,,,,,,,,,,,,,,,,,0.0.0.0,10.165.73.122,5,0
2016-08-09 13:09:53.115,67,6B5B5B79-A063-42A5-9845-86B7C35C751C,,,,,,,,,,,,,,,,,254989.8354974167,0.042755126953125,0.0702667236328125,-1.030853271484375,254989.81783475,-0.06153872857289699,-0.07145341099515298,-0.02925162878121234,,,,,,,,,,,,,,,,,,,,,,,,,,,,,,,,,0.0.0.0,10.165.73.122,5,0
2016-08-09 13:09:53.134,68,6B5B5B79-A063-42A5-9845-86B7C35C751C,,,,,,,,,,1470740993.117422,6.625152587890625,-22.48908233642578,-44.60614776611328,190.6366271972656,187.0407409667969,20,254989.8551204167,0.14263916015625,-0.1060028076171875,-1.262527465820312,254989.83785375,-0.05105120020016495,-0.03087642336226968,-0.007927165300729861,,,,,,,,,,,,,,,,,,,,,,,,,,,,,,,,,0.0.0.0,10.165.73.122,5,0
2016-08-09 13:09:53.160,69,6B5B5B79-A063-42A5-9845-86B7C35C751C,,,,,,,,,,1470740993.147311,6.923828125,-22.56450653076172,-44.30207061767578,190.6380615234375,187.0421752929688,20,254989.8747424167,-0.02239990234375,-0.124542236328125,-1.059677124023438,254989.85784275,-0.00747709107650647,-0.005277586332210027,0.003132676390260208,,,,,,,,,,,,,,,,,,,,,,,,,,,,,,,,,0.0.0.0,10.165.73.122,5,0
2016-08-09 13:09:53.174,70,6B5B5B79-A063-42A5-9845-86B7C35C751C,,,,,,,,,,,,,,,,,254989.8943654167,0.03692626953125,-0.167755126953125,-0.9408111572265625,254989.87786275,-0.06213793981816482,-0.04833104746275801,0.05064160602451076,,,,,,,,,,,,,,,,,,,,,,,,,,,,,,,,,0.0.0.0,10.165.73.122,5,0
2016-08-09 13:09:53.193,71,6B5B5B79-A063-42A5-9845-86B7C35C751C,,,,,,,,,,,,,,,,,254989.9139884167,-0.1053466796875,-0.0684356689453125,-0.90875244140625,254989.89785175,-0.02052551515345871,0.04607295317447983,0.03910079744065238,,,,,,,,,,,,,,,,,,,,,,,,,,,,,,,,,0.0.0.0,10.165.73.122,5,0
2016-08-09 13:09:53.213,72,6B5B5B79-A063-42A5-9845-86B7C35C751C,,,,,,,,,,1470740993.192507,7.073394775390625,-22.64048004150391,-44.44971466064453,190.5388946533203,186.9430084228516,20,254989.9335804167,0.003448486328125,-0.1599578857421875,-1.12481689453125,254989.91784075,-0.07058388889924211,-0.03356035710885154,0.04091441014299634,,,,,,,,,,,,,,,,,,,,,,,,,,,,,,,,,0.0.0.0,10.165.73.122,5,0
2016-08-09 13:09:53.242,73,6B5B5B79-A063-42A5-9845-86B7C35C751C,,,,,,,,,,1470740993.22235,5.647720336914062,-22.55794525146484,-43.71680450439453,190.4949645996094,186.8990783691406,20,254989.9532034167,-0.08740234375,-0.0090789794921875,-0.88348388671875,254989.93785975,-0.06054590211851545,-0.00975515907296025,-0.01981551640684358,,,,,,,,,,,,,,,,,,,,,,,,,,,,,,,,,0.0.0.0,10.165.73.122,5,0
2016-08-09 13:09:53.252,74,6B5B5B79-A063-42A5-9845-86B7C35C751C,,,,,,,,,,,,,,,,,254989.9728264167,0.057891845703125,-0.014556884765625,-1.259628295898438,254989.95784875,-0.1235728051085487,-0.03708505081157141,0.007302654025106279,,,,,,,,,,,,,,,,,,,,,,,,,,,,,,,,,0.0.0.0,10.165.73.122,5,0
2016-08-09 13:09:53.272,75,6B5B5B79-A063-42A5-9845-86B7C35C751C,,,,,,,,,,1470740993.267454,7.001968383789062,-22.26520538330078,-44.45372772216797,190.548583984375,186.9526977539062,20,254989.9924494167,0.02734375,-0.1313934326171875,-0.7786712646484375,254989.97786875,-0.06366819218052434,-0.04383962628433938,-0.02935069837376329,,,,,,,,,,,,,,,,,,,,,,,,,,,,,,,,,0.0.0.0,10.165.73.122,5,0
2016-08-09 13:09:53.291,76,6B5B5B79-A063-42A5-9845-86B7C35C751C,,,,,,,,,,,,,,,,,254990.0120724167,-0.069732666015625,0.1080780029296875,-0.8904266357421875,254989.99785775,0.03732952899964068,0.08275400244868622,-0.008356200552341625,,,,,,,,,,,,,,,,,,,,,,,,,,,,,,,,,0.0.0.0,10.165.73.122,5,0
2016-08-09 13:09:53.321,77,6B5B5B79-A063-42A5-9845-86B7C35C751C,,,,,,,,,,1470740993.29815,7.078933715820312,-21.96439361572266,-44.00539398193359,190.5561828613281,186.9602966308594,20,254990.0316944167,0.051971435546875,0.0718994140625,-1.07098388671875,254990.01787675,-0.04701597851647689,0.0002292981698558224,0.02188346099329011,,,,,,,,,,,,,,,,,,,,,,,,,,,,,,,,,0.0.0.0,10.165.73.122,5,0
2016-08-09 13:09:53.331,78,6B5B5B79-A063-42A5-9845-86B7C35C751C,,,,,,,,,,,,,,,,,254990.0513174167,0.0489501953125,-0.0595245361328125,-1.207260131835938,254990.03786575,-0.03928322397532281,0.04020574297692626,-0.01545991644401899,,,,,,,,,,,,,,,,,,,,,,,,,,,,,,,,,0.0.0.0,10.165.73.122,5,0
2016-08-09 13:09:53.350,79,6B5B5B79-A063-42A5-9845-86B7C35C751C,,,,,,,,,,1470740993.342574,5.577133178710938,-22.03192901611328,-43.42208099365234,190.5674896240234,186.9716033935547,20,254990.0709404167,-0.0627288818359375,-0.1833343505859375,-0.909210205078125,254990.05788575,-0.1063693170988549,-0.03837641762415083,-0.01489852208623028,,,,,,,,,,,,,,,,,,,,,,,,,,,,,,,,,0.0.0.0,10.165.73.122,5,0
2016-08-09 13:09:53.370,80,6B5B5B79-A063-42A5-9845-86B7C35C751C,,,,,,,,,,,,,,,,,254990.0905634167,-0.1457366943359375,-0.129425048828125,-0.6355743408203125,254990.07787475,-0.07964715872099978,-0.06400801153561846,-0.02840074881293202,,,,,,,,,,,,,,,,,,,,,,,,,,,,,,,,,0.0.0.0,10.165.73.122,5,0
2016-08-09 13:09:53.402,81,6B5B5B79-A063-42A5-9845-86B7C35C751C,,,,,,,,,,1470740993.372359,6.703445434570312,-22.18996429443359,-44.83280181884766,190.59716796875,187.0012817382812,20,254990.1101864167,0.017181396484375,0.1717681884765625,-0.834625244140625,254990.09789375,0.07777335857802002,0.07003101665694167,-0.005753759535116194,,,,,,,,,,,,,,,,,,,,,,,,,,,,,,,,,0.0.0.0,10.165.73.122,5,0
2016-08-09 13:09:53.409,82,6B5B5B79-A063-42A5-9845-86B7C35C751C,,,,,,,,,,,,,,,,,254990.1298084167,0.1247406005859375,0.336883544921875,-1.11187744140625,254990.11788375,0.08617936024274614,0.1009838727424966,0.009177785748631071,,,,,,,,,,,,,,,,,,,,,,,,,,,,,,,,,0.0.0.0,10.165.73.122,5,0
2016-08-09 13:09:53.429,83,6B5B5B79-A063-42A5-9845-86B7C35C751C,,,,,,,,,,1470740993.417474,6.103973388671875,-21.88457489013672,-43.64228057861328,190.6431274414062,187.0472412109375,20,254990.1494314167,0.1485443115234375,0.34979248046875,-1.21673583984375,254990.13787275,0.03172623806611397,0.05446031271157538,0.02897785582115219,,,,,,,,,,,,,,,,,,,,,,,,,,,,,,,,,0.0.0.0,10.165.73.122,5,0
2016-08-09 13:09:53.448,84,6B5B5B79-A063-42A5-9845-86B7C35C751C,,,,,,,,,,1470740993.447374,6.253097534179688,-21.95998382568359,-43.56493377685547,190.6283416748047,187.0324554443359,20,254990.1690544167,0.0785980224609375,0.17657470703125,-1.155624389648438,254990.15789175,0.05186825802260126,0.04927007806311996,0.04093678069615301,,,,,,,,,,,,,,,,,,,,,,,,,,,,,,,,,0.0.0.0,10.165.73.122,5,0
2016-08-09 13:09:53.486,85,6B5B5B79-A063-42A5-9845-86B7C35C751C,,,,,,,,,,,,,,,,,254990.1886774167,-0.015472412109375,0.071258544921875,-1.065475463867188,254990.17788075,0.07642100537647779,0.07254823651928456,0.03260721175471218,,,,,,,,,,,,,,,,,,,,,,,,,,,,,,,,,0.0.0.0,10.165.73.122,5,0
2016-08-09 13:09:53.487,86,6B5B5B79-A063-42A5-9845-86B7C35C751C,,,,,,,,,,,,,,,,,254990.2083004167,0.0609130859375,0.1592559814453125,-1.056671142578125,254990.19790075,0.1127017815388453,0.1127976553380881,0.02222461192892926,,,,,,,,,,,,,,,,,,,,,,,,,,,,,,,,,0.0.0.0,10.165.73.122,5,0
2016-08-09 13:09:53.507,87,6B5B5B79-A063-42A5-9845-86B7C35C751C,,,,,,,,,,1470740993.49243,6.779541015625,-21.96395111083984,-44.30884552001953,190.5941009521484,186.9982147216797,20,254990.2279224167,0.1270904541015625,0.2393951416015625,-0.8961944580078125,254990.21788975,0.1596218862560793,0.1243821397638238,0.01310168729875382,,,,,,,,,,,,,,,,,,,,,,,,,,,,,,,,,0.0.0.0,10.165.73.122,5,0
2016-08-09 13:09:53.527,88,6B5B5B79-A063-42A5-9845-86B7C35C751C,,,,,,,,,,1470740993.522327,6.253707885742188,-22.03667449951172,-44.23926544189453,190.6172332763672,187.0213470458984,20,254990.2475454167,0.078826904296875,0.1352996826171875,-0.7436370849609375,254990.23790875,0.1489985366677532,0.1169149023833506,0.009809487559197866,,,,,,,,,,,,,,,,,,,,,,,,,,,,,,,,,0.0.0.0,10.165.73.122,5,0
2016-08-09 13:09:53.563,89,6B5B5B79-A063-42A5-9845-86B7C35C751C,,,,,,,,,,,,,,,,,254990.2671684167,-0.0568389892578125,-0.12939453125,-0.745361328125,254990.25789775,-0.01489825577012127,0.009547698824043077,-0.001252750976773274,,,,,,,,,,,,,,,,,,,,,,,,,,,,,,,,,0.0.0.0,10.165.73.122,5,0
2016-08-09 13:09:53.566,90,6B5B5B79-A063-42A5-9845-86B7C35C751C,,,,,,,,,,,,,,,,,254990.2867914167,-0.08953857421875,-0.0596771240234375,-0.893829345703125,,,,,,,,,,,,,,,,,,,,,,,,,,,,,,,,,,,,,0.0.0.0,10.165.73.122,5,0
2016-08-09 13:09:53.586,91,6B5B5B79-A063-42A5-9845-86B7C35C751C,,,,,,,,,,1470740993.567511,7.230743408203125,-21.66368865966797,-43.48120880126953,190.6317596435547,187.0358734130859,20,254990.3063834167,0.06170654296875,0.0902557373046875,-0.988677978515625,254990.29790675,0.001120658186705344,-0.01282125643596848,-0.007415838371434647,,,,,,,,,,,,,,,,,,,,,,,,,,,,,,,,,0.0.0.0,10.165.73.122,5,0
2016-08-09 13:09:53.605,92,6B5B5B79-A063-42A5-9845-86B7C35C751C,,,,,,,,,,1470740993.597376,7.156661987304688,-21.74045562744141,-44.30640411376953,190.6235656738281,187.0276794433594,20,254990.3260064167,0.02276611328125,-0.0977630615234375,-0.9958648681640625,254990.31792575,-0.008637696679563002,0.01928101997606468,0.01584660743429849,,,,,,,,,,,,,,,,,,,,,,,,,,,,,,,,,0.0.0.0,10.165.73.122,5,0
2016-08-09 13:09:53.641,93,6B5B5B79-A063-42A5-9845-86B7C35C751C,,,,,,,,,,,,,,,,,254990.3456294167,-0.0398101806640625,-0.002105712890625,-1.058929443359375,,,,,,,,,,,,,,,,,,,,,,,,,,,,,,,,,,,,,0.0.0.0,10.165.73.122,5,0
2016-08-09 13:09:53.645,94,6B5B5B79-A063-42A5-9845-86B7C35C751C,,,,,,,,,,1470740993.642494,5.807342529296875,-21.35634613037109,-42.82518768310547,190.6521911621094,187.0563049316406,20,254990.3652514167,0.0587158203125,-0.005401611328125,-0.9724578857421875,254990.35790375,0.05859220714283332,0.0211976970125947,-0.003693005483612879,,,,,,,,,,,,,,,,,,,,,,,,,,,,,,,,,0.0.0.0,10.165.73.122,5,0
2016-08-09 13:09:53.664,95,6B5B5B79-A063-42A5-9845-86B7C35C751C,,,,,,,,,,,,,,,,,254990.3848744167,0.0004730224609375,-0.063751220703125,-1.008071899414062,254990.37792375,-0.03082129592770504,-0.009635050507797676,-0.00776817458365213,,,,,,,,,,,,,,,,,,,,,,,,,,,,,,,,,0.0.0.0,10.165.73.122,5,0
2016-08-09 13:09:53.684,96,6B5B5B79-A063-42A5-9845-86B7C35C751C,,,,,,,,,,1470740993.672499,7.156875610351562,-21.51302337646484,-43.33333587646484,190.6654357910156,187.0695495605469,20,254990.4044974167,0.0108489990234375,0.050567626953125,-0.9947052001953125,,,,,,,,,,,,,,,,,,,,,,,,,,,,,,,,,,,,,0.0.0.0,10.165.73.122,5,0
2016-08-09 13:09:53.721,97,6B5B5B79-A063-42A5-9845-86B7C35C751C,,,,,,,,,,1470740993.717636,7.157150268554688,-21.43746185302734,-43.10897064208984,190.6562042236328,187.0603179931641,20,254990.4241204167,0.0087738037109375,0.0235748291015625,-0.9322052001953125,254990.41793175,0.0276910163824259,0.007423561538595877,-0.0007888283148814704,,,,,,,,,,,,,,,,,,,,,,,,,,,,,,,,,0.0.0.0,10.165.73.122,5,0
2016-08-09 13:09:53.723,98,6B5B5B79-A063-42A5-9845-86B7C35C751C,,,,,,,,,,,,,,,,,254990.4437434167,-0.024078369140625,0.033203125,-1.048828125,254990.43792075,0.00531566953579816,-0.01379597339493748,0.001161404551383556,,,,,,,,,,,,,,,,,,,,,,,,,,,,,,,,,0.0.0.0,10.165.73.122,5,0
2016-08-09 13:09:53.743,99,6B5B5B79-A063-42A5-9845-86B7C35C751C,,,,,,,,,,,,,,,,,254990.4633654167,-0.08782958984375,-0.0531768798828125,-1.1282958984375,,,,,,,,,,,,,,,,,,,,,,,,,,,,,,,,,,,,,0.0.0.0,10.165.73.122,5,0
2016-08-09 13:09:53.762,100,6B5B5B79-A063-42A5-9845-86B7C35C751C,,,,,,,,,,1470740993.747397,6.25341796875,-22.03629302978516,-44.08927154541016,190.6609802246094,187.0650939941406,20,254990.4829884167,0.010528564453125,0.0330963134765625,-1.304229736328125,254990.47792975,0.0936564513192526,0.1041373217892594,0.006050968312769037,,,,,,,,,,,,,,,,,,,,,,,,,,,,,,,,,0.0.0.0,10.165.73.122,5,0
2016-08-09 13:09:53.803,101,6B5B5B79-A063-42A5-9845-86B7C35C751C,,,,,,,,,,1470740993.792599,7.005386352539062,-21.89003753662109,-44.38187408447266,190.693359375,187.0974731445312,20,254990.5026114167,0.1019439697265625,-0.021392822265625,-1.267776489257812,254990.49794875,0.05958503359721486,0.08183388029206384,0.005746036367954965,,,,,,,,,,,,,,,,,,,,,,,,,,,,,,,,,0.0.0.0,10.165.73.122,5,0
2016-08-09 13:09:53.804,102,6B5B5B79-A063-42A5-9845-86B7C35C751C,,,,,,,,,,,,,,,,,254990.5222034167,0.1471405029296875,0.1302490234375,-1.198532104492188,,,,,,,,,,,,,,,,,,,,,,,,,,,,,,,,,,,,,0.0.0.0,10.165.73.122,5,0
2016-08-09 13:09:53.821,103,6B5B5B79-A063-42A5-9845-86B7C35C751C,,,,,,,,,,,,,,,,,254990.5418264167,0.0785980224609375,0.0825347900390625,-1.118804931640625,254990.51793775,0.09675477293145078,0.06072353496322373,0.01899819226829826,,,,,,,,,,,,,,,,,,,,,,,,,,,,,,,,,0.0.0.0,10.165.73.122,5,0
2016-08-09 13:09:53.841,104,6B5B5B79-A063-42A5-9845-86B7C35C751C,,,,,,,,,,1470740993.822615,7.381988525390625,-21.43816375732422,-43.03137969970703,190.6925354003906,187.0966491699219,20,254990.5614494167,-0.0061798095703125,0.1730804443359375,-1.082244873046875,254990.55794675,0.04685618885107213,-0.03081090959945373,-0.0004772384673421995,,,,,,,,,,,,,,,,,,,,,,,,,,,,,,,,,0.0.0.0,10.165.73.122,5,0
2016-08-09 13:09:53.861,105,6B5B5B79-A063-42A5-9845-86B7C35C751C,,,,,,,,,,,,,,,,,254990.5810724167,-0.0653076171875,0.036529541015625,-1.142868041992188,,,,,,,,,,,,,,,,,,,,,,,,,,,,,,,,,,,,,0.0.0.0,10.165.73.122,5,0
2016-08-09 13:09:53.888,106,6B5B5B79-A063-42A5-9845-86B7C35C751C,,,,,,,,,,1470740993.867595,7.229812622070312,-21.96611785888672,-44.45365142822266,190.6835479736328,187.0876617431641,20,254990.6006954167,-0.090972900390625,0.179962158203125,-1.076278686523438,254990.57793575,-0.01688390867888435,-0.04587641188603198,-0.02031246226625237,,,,,,,,,,,,,,,,,,,,,,,,,,,,,,,,,0.0.0.0,10.165.73.122,5,0
2016-08-09 13:09:53.899,107,6B5B5B79-A063-42A5-9845-86B7C35C751C,,,,,,,,,,1470740993.897348,6.935333251953125,-21.21289825439453,-43.63843536376953,190.6827850341797,187.0868988037109,20,254990.6203174167,-0.0452423095703125,0.0677337646484375,-0.995635986328125,254990.61794475,-0.06055389160178569,-0.03948216210875173,-0.01866742766091042,,,,,,,,,,,,,,,,,,,,,,,,,,,,,,,,,0.0.0.0,10.165.73.122,5,0
2016-08-09 13:09:53.919,108,6B5B5B79-A063-42A5-9845-86B7C35C751C,,,,,,,,,,,,,,,,,254990.6399404167,0.0190277099609375,0.212066650390625,-0.881866455078125,,,,,,,,,,,,,,,,,,,,,,,,,,,,,,,,,,,,,0.0.0.0,10.165.73.122,5,0
2016-08-09 13:09:53.941,109,6B5B5B79-A063-42A5-9845-86B7C35C751C,,,,,,,,,,,,,,,,,254990.6595634167,0.046966552734375,0.165313720703125,-0.9818115234375,254990.63796375,-0.1043437167737406,-0.08071721684699361,-0.0008996158162287666,,,,,,,,,,,,,,,,,,,,,,,,,,,,,,,,,0.0.0.0,10.165.73.122,5,0
2016-08-09 13:09:53.963,110,6B5B5B79-A063-42A5-9845-86B7C35C751C,,,,,,,,,,1470740993.942616,6.255325317382812,-21.58332061767578,-42.89310455322266,190.6778717041016,187.0819854736328,20,254990.6791864167,0.14410400390625,0.3019256591796875,-0.9384613037109375,254990.67797275,-0.09912392103718527,-0.03384425008105398,0.01288756914711145,,,,,,,,,,,,,,,,,,,,,,,,,,,,,,,,,0.0.0.0,10.165.73.122,5,0
2016-08-09 13:09:53.978,111,6B5B5B79-A063-42A5-9845-86B7C35C751C,,,,,,,,,,1470740993.97267,6.480972290039062,-21.73683929443359,-43.93920135498047,190.6735534667969,187.0776672363281,20,254990.6988094167,0.1420745849609375,0.1842803955078125,-0.9444122314453125,,,,,,,,,,,,,,,,,,,,,,,,,,,,,,,,,,,,,0.0.0.0,10.165.73.122,5,0
2016-08-09 13:09:53.998,112,6B5B5B79-A063-42A5-9845-86B7C35C751C,,,,,,,,,,,,,,,,,254990.7184314167,0.1513519287109375,0.273712158203125,-0.86273193359375,254990.69796175,-0.09269558279795201,0.0032735576119254,0.007523430079473848,,,,,,,,,,,,,,,,,,,,,,,,,,,,,,,,,0.0.0.0,10.165.73.122,5,0
2016-08-09 13:09:54.037,113,6B5B5B79-A063-42A5-9845-86B7C35C751C,,,,,,,,,,1470740994.017554,7.159103393554688,-21.51584625244141,-44.45829010009766,190.67333984375,187.0774536132812,20,254990.7380544167,0.109710693359375,0.1510162353515625,-0.9544677734375,254990.73796975,-0.08214413855905807,0.0427011249183305,0.02032231596228566,,,,,,,,,,,,,,,,,,,,,,,,,,,,,,,,,0.0.0.0,10.165.73.122,5,0
2016-08-09 13:09:54.038,114,6B5B5B79-A063-42A5-9845-86B7C35C751C,,,,,,,,,,,,,,,,,254990.7576774167,0.0838623046875,0.2425689697265625,-0.9203948974609375,,,,,,,,,,,,,,,,,,,,,,,,,,,,,,,,,,,,,0.0.0.0,10.165.73.122,5,0
2016-08-09 13:09:54.057,115,6B5B5B79-A063-42A5-9845-86B7C35C751C,,,,,,,,,,1470740994.04743,6.332962036132812,-21.51105499267578,-43.86782073974609,190.6833801269531,187.0874938964844,20,254990.7773004167,0.0587310791015625,0.161956787109375,-0.9498138427734375,254990.75798975,-0.09384020943446807,0.02781032599926145,0.01810523435479469,,,,,,,,,,,,,,,,,,,,,,,,,,,,,,,,,0.0.0.0,10.165.73.122,5,0
2016-08-09 13:09:54.076,116,6B5B5B79-A063-42A5-9845-86B7C35C751C,1470740993.999974,51.02460844912662,13.68283574470662,228.3907,0,17.2265625,3,5,-9999,,,,,,,,254990.7969234167,0.014312744140625,0.1968841552734375,-0.9267425537109375,254990.77797875,-0.08107141727197416,0.04375227460058478,0.01926477469341519,,,,,,,,,,,,,,,,,,,,,,,,,,,,,,,,,0.0.0.0,10.165.73.122,5,0
2016-08-09 13:09:54.096,117,6B5B5B79-A063-42A5-9845-86B7C35C751C,,,,,,,,,,1470740994.092582,7.610870361328125,-21.14038848876953,-43.55628204345703,190.6773529052734,187.0814666748047,20,254990.8165154167,-0.0487213134765625,0.14825439453125,-0.96636962890625,254990.79796775,-0.07783727444418193,0.01927010101559535,0.01403619052526263,,,,,,,,,,,,,,,,,,,,,,,,,,,,,,,,,0.0.0.0,10.165.73.122,5,0
2016-08-09 13:09:54.117,118,6B5B5B79-A063-42A5-9845-86B7C35C751C,,,,,,,,,,,,,,,,,254990.8361384167,-0.0709228515625,0.1272735595703125,-0.9979095458984375,254990.81798675,-0.08850856093212943,0.02567526975334493,0.01710228788827085,,,,,,,,,,,,,,,,,,,,,,,,,,,,,,,,,0.0.0.0,10.165.73.122,5,0
2016-08-09 13:09:54.135,119,6B5B5B79-A063-42A5-9845-86B7C35C751C,,,,,,,,,,1470740994.122447,7.530609130859375,-21.74062347412109,-43.77710723876953,190.6714019775391,187.0755157470703,20,254990.8557614167,-0.1120452880859375,0.0672607421875,-1.04986572265625,254990.83797575,-0.07572378980309505,0.0150436643656396,0.01620293838815109,,,,,,,,,,,,,,,,,,,,,,,,,,,,,,,,,0.0.0.0,10.165.73.122,5,0
2016-08-09 13:09:54.155,120,6B5B5B79-A063-42A5-9845-86B7C35C751C,,,,,,,,,,,,,,,,,254990.8753834167,-0.1268768310546875,0.177276611328125,-1.069854736328125,254990.85799575,-0.0735543787791165,0.01605113820601657,0.01089259517453309,,,,,,,,,,,,,,,,,,,,,,,,,,,,,,,,,0.0.0.0,10.165.73.122,5,0
2016-08-09 13:09:54.174,121,6B5B5B79-A063-42A5-9845-86B7C35C751C,,,,,,,,,,1470740994.167583,6.781951904296875,-21.66339874267578,-44.08637237548828,190.693359375,187.0974731445312,20,254990.8950064167,-0.08892822265625,0.0577850341796875,-0.9583587646484375,254990.87798475,-0.04266117750197931,0.01815343757052513,0.009086705639350361,,,,,,,,,,,,,,,,,,,,,,,,,,,,,,,,,0.0.0.0,10.165.73.122,5,0
2016-08-09 13:09:54.195,122,6B5B5B79-A063-42A5-9845-86B7C35C751C,,,,,,,,,,,,,,,,,254990.9146294167,-0.0550689697265625,0.0640869140625,-1.037521362304688,254990.89800375,-0.008637696679563002,0.06176376568500869,0.01572942834633501,,,,,,,,,,,,,,,,,,,,,,,,,,,,,,,,,0.0.0.0,10.165.73.122,5,0
2016-08-09 13:09:54.213,123,6B5B5B79-A063-42A5-9845-86B7C35C751C,,,,,,,,,,1470740994.197328,7.308609008789062,-21.43993377685547,-43.85721588134766,190.7055816650391,187.1096954345703,20,254990.9342524167,0.017486572265625,0.105010986328125,-1.092529296875,254990.91799275,-0.04382977258830609,0.006612628986666748,0.02296630229251633,,,,,,,,,,,,,,,,,,,,,,,,,,,,,,,,,0.0.0.0,10.165.73.122,5,0
2016-08-09 13:09:54.233,124,6B5B5B79-A063-42A5-9845-86B7C35C751C,,,,,,,,,,,,,,,,,254990.9538754167,0.08575439453125,0.1896514892578125,-1.142318725585938,254990.93801275,-0.01396934518190164,0.0150436643656396,0.01686713076401685,,,,,,,,,,,,,,,,,,,,,,,,,,,,,,,,,0.0.0.0,10.165.73.122,5,0
2016-08-09 13:09:54.253,125,6B5B5B79-A063-42A5-9845-86B7C35C751C,,,,,,,,,,1470740994.242562,7.677047729492188,-22.19213104248047,-44.14658355712891,190.6959075927734,187.1000213623047,20,254990.9734974167,0.0789337158203125,0.2069854736328125,-0.9323883056640625,254990.95800175,0.03084526437751575,-0.0158873537989767,0.004640291883354065,,,,,,,,,,,,,,,,,,,,,,,,,,,,,,,,,0.0.0.0,10.165.73.122,5,0
2016-08-09 13:09:54.277,126,6B5B5B79-A063-42A5-9845-86B7C35C751C,,,,,,,,,,1470740994.272725,7.683441162109375,-21.44124603271484,-43.77788543701172,190.6992645263672,187.1033782958984,20,254990.9931204167,0.092376708984375,0.0699920654296875,-0.91607666015625,254990.97802075,0.0682307197600481,0.03174195071654543,-0.01108167961192872,,,,,,,,,,,,,,,,,,,,,,,,,,,,,,,,,0.0.0.0,10.165.73.122,5,0
2016-08-09 13:09:54.292,127,6B5B5B79-A063-42A5-9845-86B7C35C751C,,,,,,,,,,,,,,,,,254991.0127124167,0.0173492431640625,0.112091064453125,-0.939453125,254990.99800975,0.03524800229163475,0.01577816419428345,-0.01459092698032613,,,,,,,,,,,,,,,,,,,,,,,,,,,,,,,,,0.0.0.0,10.165.73.122,5,0
2016-08-09 13:09:54.311,128,6B5B5B79-A063-42A5-9845-86B7C35C751C,,,,,,,,,,,,,,,,,254991.0323354167,-0.0672454833984375,0.10614013671875,-0.9408111572265625,254991.01799875,-0.002986468846414858,-0.01940112854122725,-0.02769927218180515,,,,,,,,,,,,,,,,,,,,,,,,,,,,,,,,,0.0.0.0,10.165.73.122,5,0
2016-08-09 13:09:54.331,129,6B5B5B79-A063-42A5-9845-86B7C35C751C,,,,,,,,,,1470740994.317589,7.533233642578125,-21.66806793212891,-44.75267791748047,190.7108459472656,187.1149597167969,20,254991.0519584167,-0.1249847412109375,0.1223297119140625,-1.021453857421875,254991.03801875,0.004474643263551136,0.005015531280946229,-0.02875255239293149,,,,,,,,,,,,,,,,,,,,,,,,,,,,,,,,,0.0.0.0,10.165.73.122,5,0
2016-08-09 13:09:54.357,130,6B5B5B79-A063-42A5-9845-86B7C35C751C,,,,,,,,,,1470740994.347454,7.982147216796875,-21.59261322021484,-43.84816741943359,190.7199096679688,187.1240234375,20,254991.0715814167,-0.0842437744140625,0.08587646484375,-0.83880615234375,254991.05800775,0.01608282982298852,0.03170919383513746,-0.01484099780668457,,,,,,,,,,,,,,,,,,,,,,,,,,,,,,,,,0.0.0.0,10.165.73.122,5,0
2016-08-09 13:09:54.370,131,6B5B5B79-A063-42A5-9845-86B7C35C751C,,,,,,,,,,,,,,,,,254991.0912044167,0.0942840576171875,0.1459503173828125,-0.8826751708984375,254991.07802775,-7.190534943213943e-05,0.1190499586292671,0.00926646901293071,,,,,,,,,,,,,,,,,,,,,,,,,,,,,,,,,0.0.0.0,10.165.73.122,5,0
2016-08-09 13:09:54.390,132,6B5B5B79-A063-42A5-9845-86B7C35C751C,,,,,,,,,,,,,,,,,254991.1108264167,0.174163818359375,0.1883392333984375,-0.8785400390625,254991.09801675,-0.04591129929631202,0.09682294985535682,0.01629801323906692,,,,,,,,,,,,,,,,,,,,,,,,,,,,,,,,,0.0.0.0,10.165.73.122,5,0
2016-08-09 13:09:54.410,133,6B5B5B79-A063-42A5-9845-86B7C35C751C,,,,,,,,,,1470740994.392573,8.203262329101562,-21.96810150146484,-43.69243621826172,190.7406463623047,187.1447601318359,20,254991.1304494167,0.1536712646484375,0.142852783203125,-0.950042724609375,254991.11803575,-0.03327832834941215,0.06940570643299106,0.03570073967694822,,,,,,,,,,,,,,,,,,,,,,,,,,,,,,,,,0.0.0.0,10.165.73.122,5,0
2016-08-09 13:09:54.434,134,6B5B5B79-A063-42A5-9845-86B7C35C751C,,,,,,,,,,1470740994.422424,7.456939697265625,-21.74202728271484,-44.45293426513672,190.72900390625,187.1331176757812,20,254991.1500724167,0.015716552734375,0.06085205078125,-0.9366302490234375,254991.13802475,-0.002273274306491638,0.02356205142836705,0.01910178923470235,,,,,,,,,,,,,,,,,,,,,,,,,,,,,,,,,0.0.0.0,10.165.73.122,5,0
2016-08-09 13:09:54.449,135,6B5B5B79-A063-42A5-9845-86B7C35C751C,,,,,,,,,,,,,,,,,254991.1696644167,-0.0989532470703125,-0.0467987060546875,-0.9658966064453125,254991.15804475,0.0202059358226492,0.002156894166855175,0.003409911459737457,,,,,,,,,,,,,,,,,,,,,,,,,,,,,,,,,0.0.0.0,10.165.73.122,5,0
2016-08-09 13:09:54.468,136,6B5B5B79-A063-42A5-9845-86B7C35C751C,,,,,,,,,,1470740994.467593,7.227615356445312,-22.03922271728516,-43.70304107666016,190.7403717041016,187.1444854736328,20,254991.1892874167,-0.074432373046875,-0.013671875,-1.134490966796875,254991.17803375,0.04053171389435196,0.006274141212117677,-0.009176986800304047,,,,,,,,,,,,,,,,,,,,,,,,,,,,,,,,,0.0.0.0,10.165.73.122,5,0
2016-08-09 13:09:54.488,137,6B5B5B79-A063-42A5-9845-86B7C35C751C,,,,,,,,,,,,,,,,,254991.2089104167,-0.058197021484375,0.0151214599609375,-1.05474853515625,254991.19805275,0.03421522842090202,-0.01506550228657825,-0.01878167727167482,,,,,,,,,,,,,,,,,,,,,,,,,,,,,,,,,0.0.0.0,10.165.73.122,5,0
2016-08-09 13:09:54.516,138,6B5B5B79-A063-42A5-9845-86B7C35C751C,,,,,,,,,,1470740994.497665,7.752044677734375,-22.19243621826172,-44.14571380615234,190.7417144775391,187.1458282470703,20,254991.2285334167,0.130767822265625,0.0094146728515625,-1.212860107421875,254991.21804175,0.04041187164529839,0.05210687725627236,0.006687996445515991,,,,,,,,,,,,,,,,,,,,,,,,,,,,,,,,,0.0.0.0,10.165.73.122,5,0
2016-08-09 13:09:54.527,139,6B5B5B79-A063-42A5-9845-86B7C35C751C,,,,,,,,,,,,,,,,,254991.2481564167,0.0801544189453125,0.01348876953125,-1.0302734375,254991.23803075,0.02425713647287773,-0.002869556074560379,0.03118801320980895,,,,,,,,,,,,,,,,,,,,,,,,,,,,,,,,,0.0.0.0,10.165.73.122,5,0
2016-08-09 13:09:54.547,140,6B5B5B79-A063-42A5-9845-86B7C35C751C,,,,,,,,,,1470740994.542629,7.828582763671875,-21.96698760986328,-43.84674835205078,190.6842651367188,187.08837890625,20,254991.2677784167,-0.0315093994140625,0.0010986328125,-1.0491943359375,254991.25805075,0.06034616503675951,0.04720053558001938,0.04636456931384351,,,,,,,,,,,,,,,,,,,,,,,,,,,,,,,,,0.0.0.0,10.165.73.122,5,0
2016-08-09 13:09:54.567,141,6B5B5B79-A063-42A5-9845-86B7C35C751C,,,,,,,,,,,,,,,,,254991.2874014167,-0.0654754638671875,-0.0161285400390625,-1.005630493164062,254991.27803975,0.06349242354857912,0.04195570612921733,0.05280995178405327,,,,,,,,,,,,,,,,,,,,,,,,,,,,,,,,,0.0.0.0,10.165.73.122,5,0
2016-08-09 13:09:54.597,142,6B5B5B79-A063-42A5-9845-86B7C35C751C,,,,,,,,,,1470740994.572579,7.453903198242188,-21.96587371826172,-44.00107574462891,190.6302337646484,187.0343475341797,20,254991.3070244167,0.0191802978515625,0.0181121826171875,-1.05377197265625,,,,,,,,,,,,,,,,,,,,,,,,,,,,,,,,,,,,,0.0.0.0,10.165.73.122,5,0
2016-08-09 13:09:54.606,143,6B5B5B79-A063-42A5-9845-86B7C35C751C,,,,,,,,,,,,,,,,,254991.3266474167,0.036651611328125,-0.0518035888671875,-0.9763641357421875,254991.31804775,0.04118898205138351,0.05462409711861525,0.04507187092071904,,,,,,,,,,,,,,,,,,,,,,,,,,,,,,,,,0.0.0.0,10.165.73.122,5,0
2016-08-09 13:09:54.625,144,6B5B5B79-A063-42A5-9845-86B7C35C751C,,,,,,,,,,1470740994.61764,8.05316162109375,-22.04325103759766,-43.99352264404297,190.5215606689453,186.9256744384766,20,254991.3462704167,0.0301361083984375,0.0222015380859375,-1.167373657226562,254991.33806775,0.0007211840231934577,0.1141108600716062,0.04553872305980993,,,,,,,,,,,,,,,,,,,,,,,,,,,,,,,,,0.0.0.0,10.165.73.122,5,0
2016-08-09 13:09:54.645,145,6B5B5B79-A063-42A5-9845-86B7C35C751C,,,,,,,,,,,,,,,,,254991.3658624167,0.01104736328125,0.053558349609375,-1.060165405273438,,,,,,,,,,,,,,,,,,,,,,,,,,,,,,,,,,,,,0.0.0.0,10.165.73.122,5,0
2016-08-09 13:09:54.682,146,6B5B5B79-A063-42A5-9845-86B7C35C751C,,,,,,,,,,1470740994.647691,8.27850341796875,-21.81690216064453,-43.09284210205078,190.4548034667969,186.8589172363281,20,254991.3854854167,0.05010986328125,-0.148468017578125,-1.004913330078125,254991.37807575,0.04297489787839065,0.07845912255871543,0.09087105113513873,,,,,,,,,,,,,,,,,,,,,,,,,,,,,,,,,0.0.0.0,10.165.73.122,5,0
2016-08-09 13:09:54.684,147,6B5B5B79-A063-42A5-9845-86B7C35C751C,,,,,,,,,,,,,,,,,254991.4051074167,0.05908203125,0.0765838623046875,-1.090530395507812,254991.39806475,0.0002498045102494326,-0.03393453124200767,0.1088465895448466,,,,,,,,,,,,,,,,,,,,,,,,,,,,,,,,,0.0.0.0,10.165.73.122,5,0
2016-08-09 13:09:54.704,148,6B5B5B79-A063-42A5-9845-86B7C35C751C,,,,,,,,,,1470740994.692805,7.600326538085938,-22.34145355224609,-43.99619293212891,190.2111511230469,186.6152648925781,20,254991.4247304167,0.0281524658203125,0.2274169921875,-0.9696807861328125,,,,,,,,,,,,,,,,,,,,,,,,,,,,,,,,,,,,,0.0.0.0,10.165.73.122,5,0
2016-08-09 13:09:54.723,149,6B5B5B79-A063-42A5-9845-86B7C35C751C,,,,,,,,,,1470740994.72245,8.498046875,-22.34220123291016,-42.86086273193359,190.0587463378906,186.4628601074219,20,254991.4443534167,0.09912109375,0.1030731201171875,-0.869140625,254991.43807375,-0.001951564446810066,0.05112923082010427,0.1181838986427734,,,,,,,,,,,,,,,,,,,,,,,,,,,,,,,,,0.0.0.0,10.165.73.122,5,0
2016-08-09 13:09:54.751,150,6B5B5B79-A063-42A5-9845-86B7C35C751C,,,,,,,,,,,,,,,,,254991.4639764167,0.0236053466796875,0.0971527099609375,-0.98577880859375,254991.45809275,-0.0733764796182992,-0.02840580881900317,0.129363049950599,,,,,,,,,,,,,,,,,,,,,,,,,,,,,,,,,0.0.0.0,10.165.73.122,5,0
2016-08-09 13:09:54.763,151,6B5B5B79-A063-42A5-9845-86B7C35C751C,,,,,,,,,,,,,,,,,254991.4835994167,0.011505126953125,0.1070098876953125,-1.039321899414062,,,,,,,,,,,,,,,,,,,,,,,,,,,,,,,,,,,,,0.0.0.0,10.165.73.122,5,0
2016-08-09 13:09:54.782,152,6B5B5B79-A063-42A5-9845-86B7C35C751C,,,,,,,,,,1470740994.767683,6.998489379882812,-22.03307342529297,-41.60573577880859,189.6774291992188,186.08154296875,20,254991.5032214167,0.0658416748046875,0.0102386474609375,-0.9767303466796875,254991.49807075,-0.05986253498280111,-0.04176502379516765,0.17325860261783,,,,,,,,,,,,,,,,,,,,,,,,,,,,,,,,,0.0.0.0,10.165.73.122,5,0
2016-08-09 13:09:54.802,153,6B5B5B79-A063-42A5-9845-86B7C35C751C,,,,,,,,,,1470740994.797429,7.598556518554688,-22.33919525146484,-43.09622955322266,189.4411010742188,185.84521484375,20,254991.5228144167,0.073760986328125,0.200653076171875,-1.10821533203125,254991.51809075,-0.01302232509826946,-0.05025065397648713,0.1748519718980245,,,,,,,,,,,,,,,,,,,,,,,,,,,,,,,,,0.0.0.0,10.165.73.122,5,0
2016-08-09 13:09:54.831,154,6B5B5B79-A063-42A5-9845-86B7C35C751C,,,,,,,,,,,,,,,,,254991.5424374167,0.06646728515625,0.20709228515625,-0.993621826171875,,,,,,,,,,,,,,,,,,,,,,,,,,,,,,,,,,,,,0.0.0.0,10.165.73.122,5,0
2016-08-09 13:09:54.841,155,6B5B5B79-A063-42A5-9845-86B7C35C751C,,,,,,,,,,,,,,,,,254991.5620594167,0.0912017822265625,-0.0010833740234375,-1.042938232421875,254991.53807975,0.06774549180943566,0.001998169765886453,0.1958339528623227,,,,,,,,,,,,,,,,,,,,,,,,,,,,,,,,,0.0.0.0,10.165.73.122,5,0
2016-08-09 13:09:54.861,156,6B5B5B79-A063-42A5-9845-86B7C35C751C,,,,,,,,,,1470740994.842646,7.89556884765625,-22.71611785888672,-43.38961029052734,188.929443359375,185.3335571289062,20,254991.5816824167,-0.019805908203125,-0.0241546630859375,-0.936767578125,254991.57808875,0.04957314579517097,-0.03826216801338643,0.2053451663794317,,,,,,,,,,,,,,,,,,,,,,,,,,,,,,,,,0.0.0.0,10.165.73.122,5,0
2016-08-09 13:09:54.880,157,6B5B5B79-A063-42A5-9845-86B7C35C751C,,,,,,,,,,1470740994.87251,6.468338012695312,-22.85932159423828,-42.95481109619141,188.659423828125,185.0635375976562,20,254991.6013054167,-0.0465545654296875,-0.0441436767578125,-1.059906005859375,,,,,,,,,,,,,,,,,,,,,,,,,,,,,,,,,,,,,0.0.0.0,10.165.73.122,5,0
2016-08-09 13:09:54.914,158,6B5B5B79-A063-42A5-9845-86B7C35C751C,,,,,,,,,,,,,,,,,254991.6209284167,-0.0439605712890625,0.2874755859375,-0.998626708984375,254991.59810775,-0.02807238105052525,-0.03837135761807968,0.1938485662696686,,,,,,,,,,,,,,,,,,,,,,,,,,,,,,,,,0.0.0.0,10.165.73.122,5,0
2016-08-09 13:09:54.920,159,6B5B5B79-A063-42A5-9845-86B7C35C751C,,,,,,,,,,1470740994.917615,6.915863037109375,-23.08571624755859,-42.79773712158203,188.0937652587891,184.4978790283203,20,254991.6405514167,-0.0282135009765625,0.0214385986328125,-0.860260009765625,254991.63811675,-0.03112276576310201,-0.05662306583282873,0.1746748716855342,,,,,,,,,,,,,,,,,,,,,,,,,,,,,,,,,0.0.0.0,10.165.73.122,5,0
2016-08-09 13:09:54.940,160,6B5B5B79-A063-42A5-9845-86B7C35C751C,,,,,,,,,,,,,,,,,254991.6601734167,0.0716400146484375,0.0133209228515625,-0.959442138671875,,,,,,,,,,,,,,,,,,,,,,,,,,,,,,,,,,,,,0.0.0.0,10.165.73.122,5,0
2016-08-09 13:09:54.959,161,6B5B5B79-A063-42A5-9845-86B7C35C751C,,,,,,,,,,1470740994.947656,6.9169921875,-22.93535614013672,-42.64900970458984,187.8684234619141,184.2725372314453,20,254991.6797964167,0.0059967041015625,-0.1011199951171875,-1.04534912109375,254991.65810575,-0.01069312440888616,-0.05902017713000905,0.1482467262920238,,,,,,,,,,,,,,,,,,,,,,,,,,,,,,,,,0.0.0.0,10.165.73.122,5,0
2016-08-09 13:09:54.993,162,6B5B5B79-A063-42A5-9845-86B7C35C751C,,,,,,,,,,,,,,,,,254991.6994194167,-0.0220184326171875,-0.0201416015625,-1.028060913085938,254991.69811375,-0.03416516099240853,-0.08975465400617751,0.1544761263978282,,,,,,,,,,,,,,,,,,,,,,,,,,,,,,,,,0.0.0.0,10.165.73.122,5,0
2016-08-09 13:09:54.998,163,6B5B5B79-A063-42A5-9845-86B7C35C751C,,,,,,,,,,1470740994.992648,6.987442016601562,-23.46118927001953,-42.86872100830078,187.4566955566406,183.8608093261719,20,254991.7190424167,-0.0628204345703125,-0.091888427734375,-0.8968353271484375,,,,,,,,,,,,,,,,,,,,,,,,,,,,,,,,,,,,,0.0.0.0,10.165.73.122,5,0
2016-08-09 13:09:55.018,164,6B5B5B79-A063-42A5-9845-86B7C35C751C,,,,,,,,,,,,,,,,,254991.7386344167,0.0706329345703125,0.0834808349609375,-0.877899169921875,254991.71810275,-0.04886367968077386,-0.07941786055114396,0.1265688613348879,,,,,,,,,,,,,,,,,,,,,,,,,,,,,,,,,0.0.0.0,10.165.73.122,5,0
2016-08-09 13:09:55.038,165,6B5B5B79-A063-42A5-9845-86B7C35C751C,,,,,,,,,,1470740995.022581,6.688766479492188,-23.38574981689453,-43.17279815673828,187.2673645019531,183.6714782714844,20,254991.7582574167,-0.0752716064453125,0.0819091796875,-1.087600708007812,254991.75811175,-0.01490411472451945,-0.053775347679207,0.1417898922291267,,,,,,,,,,,,,,,,,,,,,,,,,,,,,,,,,0.0.0.0,10.165.73.122,5,0
2016-08-09 13:09:55.060,166,6B5B5B79-A063-42A5-9845-86B7C35C751C,1470740994.999972,51.02462655403747,13.68282836863183,228.248,0.97,60.46875,3,5,-9999,,,,,,,,254991.7778804167,-0.0860748291015625,-0.06207275390625,-0.9424285888671875,,,,,,,,,,,,,,,,,,,,,,,,,,,,,,,,,,,,,0.0.0.0,10.165.73.122,5,0
2016-08-09 13:09:55.077,167,6B5B5B79-A063-42A5-9845-86B7C35C751C,,,,,,,,,,1470740995.067655,6.989822387695312,-23.08469390869141,-42.27190399169922,186.9264831542969,183.3305969238281,20,254991.7975024167,0.062896728515625,0.0341949462890625,-1.070220947265625,254991.77813075,-0.0743613165894105,-0.1708321965486588,0.1190835144590021,,,,,,,,,,,,,,,,,,,,,,,,,,,,,,,,,0.0.0.0,10.165.73.122,5,0
2016-08-09 13:09:55.096,168,6B5B5B79-A063-42A5-9845-86B7C35C751C,,,,,,,,,,,,,,,,,254991.8171254167,-0.059326171875,0.1695404052734375,-0.929107666015625,254991.79811975,-0.07726789060312299,-0.212645956191775,0.08078512745479063,,,,,,,,,,,,,,,,,,,,,,,,,,,,,,,,,0.0.0.0,10.165.73.122,5,0
2016-08-09 13:09:55.116,169,6B5B5B79-A063-42A5-9845-86B7C35C751C,,,,,,,,,,1470740995.097501,6.313522338867188,-23.45981597900391,-43.40148162841797,186.7913970947266,183.1955108642578,20,254991.8367484167,-0.0426483154296875,0.01873779296875,-1.119094848632812,254991.81813975,-0.08596151366557765,-0.08389543329189418,0.1037924424280942,,,,,,,,,,,,,,,,,,,,,,,,,,,,,,,,,0.0.0.0,10.165.73.122,5,0
2016-08-09 13:09:55.136,170,6B5B5B79-A063-42A5-9845-86B7C35C751C,,,,,,,,,,,,,,,,,254991.8563714167,-0.0449676513671875,-0.0181121826171875,-0.9050750732421875,254991.83812875,-0.03919320913047813,-0.01900005648106132,0.11477824824078,,,,,,,,,,,,,,,,,,,,,,,,,,,,,,,,,0.0.0.0,10.165.73.122,5,0
2016-08-09 13:09:55.157,171,6B5B5B79-A063-42A5-9845-86B7C35C751C,,,,,,,,,,1470740995.14274,7.059310913085938,-23.83702850341797,-43.08969879150391,186.5398101806641,182.9439239501953,20,254991.8759634167,-0.013580322265625,0.100067138671875,-1.04522705078125,254991.85814775,-0.03048360710148299,-0.08192416145301752,0.08945717891241566,,,,,,,,,,,,,,,,,,,,,,,,,,,,,,,,,0.0.0.0,10.165.73.122,5,0
2016-08-09 13:09:55.175,172,6B5B5B79-A063-42A5-9845-86B7C35C751C,,,,,,,,,,1470740995.172874,5.48809814453125,-23.38004302978516,-42.81165313720703,186.4284057617188,182.83251953125,20,254991.8955864167,-0.1942901611328125,0.0438232421875,-0.89617919921875,254991.87813675,-0.01227131367086711,-0.05021496761788007,0.07463908429110577,,,,,,,,,,,,,,,,,,,,,,,,,,,,,,,,,0.0.0.0,10.165.73.122,5,0
2016-08-09 13:09:55.194,173,6B5B5B79-A063-42A5-9845-86B7C35C751C,,,,,,,,,,,,,,,,,254991.9152094167,-0.1388397216796875,-0.037109375,-1.002120971679688,254991.89815675,-0.08988488258348239,-0.003636812784612208,0.058749333647148,,,,,,,,,,,,,,,,,,,,,,,,,,,,,,,,,0.0.0.0,10.165.73.122,5,0
2016-08-09 13:09:55.214,174,6B5B5B79-A063-42A5-9845-86B7C35C751C,,,,,,,,,,,,,,,,,254991.9348324167,0.107757568359375,0.1566162109375,-0.921295166015625,254991.91814575,-0.03976259297153707,0.04510915517598015,0.04849216870870781,,,,,,,,,,,,,,,,,,,,,,,,,,,,,,,,,0.0.0.0,10.165.73.122,5,0
2016-08-09 13:09:55.240,175,6B5B5B79-A063-42A5-9845-86B7C35C751C,,,,,,,,,,1470740995.218317,6.391754150390625,-23.00882720947266,-42.87941741943359,186.3133544921875,182.7174682617188,20,254991.9544544167,0.160491943359375,0.16925048828125,-0.985992431640625,254991.93816475,0.01453073953969034,0.01219594621201787,0.05023307711329261,,,,,,,,,,,,,,,,,,,,,,,,,,,,,,,,,0.0.0.0,10.165.73.122,5,0
2016-08-09 13:09:55.253,176,6B5B5B79-A063-42A5-9845-86B7C35C751C,,,,,,,,,,1470740995.247774,6.089096069335938,-23.38373565673828,-43.32971954345703,186.2547454833984,182.6588592529297,20,254991.9740774167,-0.127593994140625,0.038787841796875,-0.78070068359375,254991.95815475,0.03600114424790916,-0.05389252676717049,0.02719034209749101,,,,,,,,,,,,,,,,,,,,,,,,,,,,,,,,,0.0.0.0,10.165.73.122,5,0
2016-08-09 13:09:55.273,177,6B5B5B79-A063-42A5-9845-86B7C35C751C,,,,,,,,,,,,,,,,,254991.9937004167,-0.1574249267578125,-0.04669189453125,-1.042098999023438,254991.97814375,-0.007453122626695756,0.0148689609981304,-0.0001211738295986053,,,,,,,,,,,,,,,,,,,,,,,,,,,,,,,,,0.0.0.0,10.165.73.122,5,0
2016-08-09 13:09:55.293,178,6B5B5B79-A063-42A5-9845-86B7C35C751C,,,,,,,,,,,,,,,,,254992.0133234167,0.0841522216796875,-0.0908355712890625,-1.059280395507812,254991.99816275,-0.06068971281737973,0.04673102027983841,-0.0007816377799382564,,,,,,,,,,,,,,,,,,,,,,,,,,,,,,,,,0.0.0.0,10.165.73.122,5,0
2016-08-09 13:09:55.322,179,6B5B5B79-A063-42A5-9845-86B7C35C751C,,,,,,,,,,1470740995.292795,5.341049194335938,-23.30727386474609,-43.93895721435547,186.2505645751953,182.6546783447266,20,254992.0329464167,0.209259033203125,0.13446044921875,-1.19659423828125,254992.01815175,-0.04685618885107213,0.05736262566754374,0.0004040015373650205,,,,,,,,,,,,,,,,,,,,,,,,,,,,,,,,,0.0.0.0,10.165.73.122,5,0
2016-08-09 13:09:55.332,180,6B5B5B79-A063-42A5-9845-86B7C35C751C,,,,,,,,,,1470740995.32275,6.461074829101562,-23.68502044677734,-43.24787139892578,186.2604217529297,182.6645355224609,20,254992.0525384167,-0.0753021240234375,0.1827545166015625,-0.8724822998046875,254992.03817175,-0.008533833397049911,-0.06901262385609536,0.002230930045159378,,,,,,,,,,,,,,,,,,,,,,,,,,,,,,,,,0.0.0.0,10.165.73.122,5,0
2016-08-09 13:09:55.351,181,6B5B5B79-A063-42A5-9845-86B7C35C751C,,,,,,,,,,,,,,,,,254992.0721614167,-0.1303558349609375,-0.0304718017578125,-0.973114013671875,254992.05816075,0.01609880878952899,-0.005485046581127199,-0.01687059287343396,,,,,,,,,,,,,,,,,,,,,,,,,,,,,,,,,0.0.0.0,10.165.73.122,5,0
2016-08-09 13:09:55.371,182,6B5B5B79-A063-42A5-9845-86B7C35C751C,,,,,,,,,,1470740995.367805,5.115280151367188,-23.22949981689453,-43.19222259521484,186.2936553955078,182.6977691650391,20,254992.0917834167,-0.065765380859375,-0.053680419921875,-1.002349853515625,254992.07817975,-0.06787918249615764,0.01450863530264268,-0.03595400629661476,,,,,,,,,,,,,,,,,,,,,,,,,,,,,,,,,0.0.0.0,10.165.73.122,5,0
2016-08-09 13:09:55.400,183,6B5B5B79-A063-42A5-9845-86B7C35C751C,,,,,,,,,,1470740995.39769,5.114212036132812,-23.15224456787109,-42.29288482666016,186.3435974121094,182.7477111816406,20,254992.1114064167,0.0794677734375,0.0675201416015625,-1.120864868164062,254992.09816875,-0.0647489029508785,0.04752011491082889,-0.02748195823685468,,,,,,,,,,,,,,,,,,,,,,,,,,,,,,,,,0.0.0.0,10.165.73.122,5,0
2016-08-09 13:09:55.410,184,6B5B5B79-A063-42A5-9845-86B7C35C751C,,,,,,,,,,,,,,,,,254992.1310294167,0.0617218017578125,0.199462890625,-1.043609619140625,254992.11818875,-0.09771564145275137,-0.02263101031127535,-0.03297392903681609,,,,,,,,,,,,,,,,,,,,,,,,,,,,,,,,,0.0.0.0,10.165.73.122,5,0
2016-08-09 13:09:55.430,185,6B5B5B79-A063-42A5-9845-86B7C35C751C,,,,,,,,,,,,,,,,,254992.1506524167,-0.111785888671875,0.2649078369140625,-1.060317993164062,254992.13817775,-0.03157443788397945,-0.01218502725154855,-0.04935023921193134,,,,,,,,,,,,,,,,,,,,,,,,,,,,,,,,,0.0.0.0,10.165.73.122,5,0
2016-08-09 13:09:55.449,186,6B5B5B79-A063-42A5-9845-86B7C35C751C,,,,,,,,,,1470740995.442707,6.015625,-23.08176422119141,-42.65811920166016,186.4647979736328,182.8689117431641,20,254992.1702754167,-0.041839599609375,-0.0512237548828125,-0.89605712890625,254992.15819675,0.01916517246864623,0.04673102027983841,7.723167161229791e-05,,,,,,,,,,,,,,,,,,,,,,,,,,,,,,,,,0.0.0.0,10.165.73.122,5,0
2016-08-09 13:09:55.480,187,6B5B5B79-A063-42A5-9845-86B7C35C751C,,,,,,,,,,1470740995.472707,5.786087036132812,-23.60640716552734,-42.88129425048828,186.4557495117188,182.85986328125,20,254992.1898674167,-0.0883331298828125,0.0714111328125,-1.228485107421875,254992.17818575,0.08103146985562297,0.1241091657520907,-0.01439731516907737,,,,,,,,,,,,,,,,,,,,,,,,,,,,,,,,,0.0.0.0,10.165.73.122,5,0
2016-08-09 13:09:55.489,188,6B5B5B79-A063-42A5-9845-86B7C35C751C,,,,,,,,,,,,,,,,,254992.2094904167,-0.04400634765625,0.1095123291015625,-0.944854736328125,254992.19820575,0.003138269028549374,0.06273848264397769,0.007323959313826913,,,,,,,,,,,,,,,,,,,,,,,,,,,,,,,,,0.0.0.0,10.165.73.122,5,0
2016-08-09 13:09:55.508,189,6B5B5B79-A063-42A5-9845-86B7C35C751C,,,,,,,,,,,,,,,,,254992.2291134167,0.0645599365234375,0.1197052001953125,-0.88629150390625,254992.21819475,0.0226629682443563,0.1620815818388765,-0.0407181351706575,,,,,,,,,,,,,,,,,,,,,,,,,,,,,,,,,0.0.0.0,10.165.73.122,5,0
2016-08-09 13:09:55.528,190,6B5B5B79-A063-42A5-9845-86B7C35C751C,,,,,,,,,,1470740995.517741,6.093063354492188,-22.85746002197266,-42.80915069580078,186.51318359375,182.9172973632812,20,254992.2487354167,0.105377197265625,0.1517791748046875,-1.026657104492188,254992.23818375,-0.03266313813760384,0.08024770154681264,-0.04641836516786311,,,,,,,,,,,,,,,,,,,,,,,,,,,,,,,,,0.0.0.0,10.165.73.122,5,0
2016-08-09 13:09:55.560,191,6B5B5B79-A063-42A5-9845-86B7C35C751C,,,,,,,,,,1470740995.547819,6.767868041992188,-22.85994720458984,-42.72635650634766,186.5983428955078,183.0024566650391,20,254992.2683584167,-0.046844482421875,0.270477294921875,-0.7511138916015625,254992.25820275,-0.07212213074487188,-0.03649249746902878,-0.03799132453052537,,,,,,,,,,,,,,,,,,,,,,,,,,,,,,,,,0.0.0.0,10.165.73.122,5,0
2016-08-09 13:09:55.567,192,6B5B5B79-A063-42A5-9845-86B7C35C751C,,,,,,,,,,,,,,,,,254992.2879814167,-0.02679443359375,0.14019775390625,-0.8594207763671875,254992.27819175,0.01315228735946533,0.07276954520587015,-0.05016969387934872,,,,,,,,,,,,,,,,,,,,,,,,,,,,,,,,,0.0.0.0,10.165.73.122,5,0
2016-08-09 13:09:55.587,193,6B5B5B79-A063-42A5-9845-86B7C35C751C,,,,,,,,,,,,,,,,,254992.3075734167,0.13018798828125,0.1552734375,-0.7219085693359375,254992.29821175,0.007556985909208847,0.05720976022097319,-0.01393685461660267,,,,,,,,,,,,,,,,,,,,,,,,,,,,,,,,,0.0.0.0,10.165.73.122,5,0
2016-08-09 13:09:55.606,194,6B5B5B79-A063-42A5-9845-86B7C35C751C,,,,,,,,,,1470740995.592889,6.013992309570312,-23.07970428466797,-41.83315277099609,186.6889953613281,183.0931091308594,20,254992.3271964167,0.071563720703125,0.229766845703125,-0.8875732421875,,,,,,,,,,,,,,,,,,,,,,,,,,,,,,,,,,,,,0.0.0.0,10.165.73.122,5,0
2016-08-09 13:09:55.645,195,6B5B5B79-A063-42A5-9845-86B7C35C751C,,,,,,,,,,1470740995.622733,6.240814208984375,-23.23471832275391,-43.47922515869141,186.7095031738281,183.1136169433594,20,254992.3468194167,-0.009368896484375,0.30706787109375,-0.840087890625,254992.33821975,-0.008406001664726107,0.01152988962338905,-0.01504872437171075,,,,,,,,,,,,,,,,,,,,,,,,,,,,,,,,,0.0.0.0,10.165.73.122,5,0
2016-08-09 13:09:55.646,196,6B5B5B79-A063-42A5-9845-86B7C35C751C,,,,,,,,,,,,,,,,,254992.3664424167,-0.0720367431640625,0.05267333984375,-0.987579345703125,254992.35820875,-0.00517185883693388,0.03696494224640883,-0.02041499396822042,,,,,,,,,,,,,,,,,,,,,,,,,,,,,,,,,0.0.0.0,10.165.73.122,5,0
2016-08-09 13:09:55.665,197,6B5B5B79-A063-42A5-9845-86B7C35C751C,,,,,,,,,,,,,,,,,254992.3860644167,-0.07696533203125,-0.07720947265625,-1.00555419921875,,,,,,,,,,,,,,,,,,,,,,,,,,,,,,,,,,,,,0.0.0.0,10.165.73.122,5,0
2016-08-09 13:09:55.685,198,6B5B5B79-A063-42A5-9845-86B7C35C751C,,,,,,,,,,1470740995.667799,6.9119873046875,-23.46031951904297,-42.64459991455078,186.7797393798828,183.1838531494141,20,254992.4056874167,0.080963134765625,0.087860107421875,-1.02783203125,254992.39821775,0.03644855531104247,-0.002462625059996271,-0.03265275180935253,,,,,,,,,,,,,,,,,,,,,,,,,,,,,,,,,0.0.0.0,10.165.73.122,5,0
2016-08-09 13:09:55.721,199,6B5B5B79-A063-42A5-9845-86B7C35C751C,,,,,,,,,,1470740995.698269,6.013748168945312,-23.23119354248047,-42.43187713623047,186.8371429443359,183.2412567138672,20,254992.4253104167,0.201751708984375,0.143157958984375,-0.7947845458984375,254992.41823775,0.05112310554959709,0.02971608407532216,-0.001664475681299524,,,,,,,,,,,,,,,,,,,,,,,,,,,,,,,,,0.0.0.0,10.165.73.122,5,0
2016-08-09 13:09:55.724,200,6B5B5B79-A063-42A5-9845-86B7C35C751C,,,,,,,,,,,,,,,,,254992.4449334167,0.071380615234375,-0.0340423583984375,-0.89453125,,,,,,,,,,,,,,,,,,,,,,,,,,,,,,,,,,,,,0.0.0.0,10.165.73.122,5,0
2016-08-09 13:09:55.744,201,6B5B5B79-A063-42A5-9845-86B7C35C751C,,,,,,,,,,1470740995.742793,7.136566162109375,-23.53658294677734,-42.79137420654297,186.8151702880859,183.2192840576172,20,254992.4645564167,-0.1024322509765625,-0.0011138916015625,-1.08172607421875,254992.45824575,-0.09600962045844662,0.004499410661688873,0.02347709658959352,,,,,,,,,,,,,,,,,,,,,,,,,,,,,,,,,0.0.0.0,10.165.73.122,5,0
2016-08-09 13:09:55.763,202,6B5B5B79-A063-42A5-9845-86B7C35C751C,,,,,,,,,,,,,,,,,254992.4841484167,-0.0386962890625,-0.015594482421875,-1.156982421875,254992.47823475,-0.05882390215767021,0.1033809840396769,0.03426609479772253,,,,,,,,,,,,,,,,,,,,,,,,,,,,,,,,,0.0.0.0,10.165.73.122,5,0
2016-08-09 13:09:55.800,203,6B5B5B79-A063-42A5-9845-86B7C35C751C,,,,,,,,,,1470740995.772766,6.689743041992188,-23.23519134521484,-42.94907379150391,186.7911682128906,183.1952819824219,20,254992.5037714167,0.095733642578125,0.19976806640625,-1.046798706054688,,,,,,,,,,,,,,,,,,,,,,,,,,,,,,,,,,,,,0.0.0.0,10.165.73.122,5,0
2016-08-09 13:09:55.803,204,6B5B5B79-A063-42A5-9845-86B7C35C751C,,,,,,,,,,,,,,,,,254992.5233944167,-0.01458740234375,0.026947021484375,-1.000396728515625,254992.51824375,0.03965074020575374,-0.002473544020465596,-0.03368446041564923,,,,,,,,,,,,,,,,,,,,,,,,,,,,,,,,,0.0.0.0,10.165.73.122,5,0
2016-08-09 13:09:55.822,205,6B5B5B79-A063-42A5-9845-86B7C35C751C,,,,,,,,,,1470740995.817818,6.991714477539062,-23.01120758056641,-42.87248992919922,186.8240814208984,183.2281951904297,20,254992.5430164167,0.079315185546875,0.118896484375,-1.388885498046875,254992.53823275,-0.01678004539637126,0.07505746689835721,-0.03450524666361165,,,,,,,,,,,,,,,,,,,,,,,,,,,,,,,,,0.0.0.0,10.165.73.122,5,0
2016-08-09 13:09:55.842,206,6B5B5B79-A063-42A5-9845-86B7C35C751C,,,,,,,,,,,,,,,,,254992.5626394167,0.0077056884765625,0.0610198974609375,-0.851043701171875,,,,,,,,,,,,,,,,,,,,,,,,,,,,,,,,,,,,,0.0.0.0,10.165.73.122,5,0
2016-08-09 13:09:55.880,207,6B5B5B79-A063-42A5-9845-86B7C35C751C,,,,,,,,,,1470740995.848242,6.915390014648438,-23.00922393798828,-42.19838714599609,186.8562927246094,183.2604064941406,20,254992.5822624167,0.1987762451171875,-0.067230224609375,-0.9650726318359375,254992.55825175,-0.06616517201858264,-0.01784770667738403,0.01959500666858502,,,,,,,,,,,,,,,,,,,,,,,,,,,,,,,,,0.0.0.0,10.165.73.122,5,0
2016-08-09 13:09:55.882,208,6B5B5B79-A063-42A5-9845-86B7C35C751C,,,,,,,,,,,,,,,,,254992.6018544167,0.185577392578125,0.010223388671875,-0.909576416015625,254992.59826075,-0.03768905574680138,-0.003669569666020182,0.05611227153575153,,,,,,,,,,,,,,,,,,,,,,,,,,,,,,,,,0.0.0.0,10.165.73.122,5,0
2016-08-09 13:09:55.901,209,6B5B5B79-A063-42A5-9845-86B7C35C751C,,,,,,,,,,1470740995.893001,6.534698486328125,-23.60768890380859,-42.19768524169922,186.8022613525391,183.2063751220703,20,254992.6214774167,0.0243682861328125,0.086212158203125,-1.147323608398438,,,,,,,,,,,,,,,,,,,,,,,,,,,,,,,,,,,,,0.0.0.0,10.165.73.122,5,0
2016-08-09 13:09:55.920,210,6B5B5B79-A063-42A5-9845-86B7C35C751C,,,,,,,,,,,,,,,,,254992.6411004167,-0.1492156982421875,0.145355224609375,-0.800811767578125,254992.61824975,-0.01826821981350754,-0.005081045043762179,0.02220730138184374,,,,,,,,,,,,,,,,,,,,,,,,,,,,,,,,,0.0.0.0,10.165.73.122,5,0
2016-08-09 13:09:55.970,211,6B5B5B79-A063-42A5-9845-86B7C35C751C,,,,,,,,,,1470740995.968044,6.838333129882812,-23.46172332763672,-43.32044219970703,186.7014007568359,183.1055145263672,20,254992.6607234167,0.0410614013671875,-0.0680389404296875,-1.06207275390625,254992.65825775,-0.02238333632989798,0.09243272879836119,0.002702842190321419,,,,,,,,,,,,,,,,,,,,,,,,,,,,,,,,,0.0.0.0,10.165.73.122,5,0
2016-08-09 13:09:55.971,212,6B5B5B79-A063-42A5-9845-86B7C35C751C,,,,,,,,,,,,,,,,,254992.6803454167,0.2229766845703125,0.08721923828125,-1.152496337890625,,,,,,,,,,,,,,,,,,,,,,,,,,,,,,,,,,,,,0.0.0.0,10.165.73.122,5,0
2016-08-09 13:09:55.979,213,6B5B5B79-A063-42A5-9845-86B7C35C751C,,,,,,,,,,,,,,,,,254992.6999384167,0.0312042236328125,0.2606658935546875,-0.8354644775390625,254992.67827775,-0.08020642254991642,0.0142873266160571,0.04600983625664495,,,,,,,,,,,,,,,,,,,,,,,,,,,,,,,,,0.0.0.0,10.165.73.122,5,0
2016-08-09 13:09:55.999,214,6B5B5B79-A063-42A5-9845-86B7C35C751C,,,,,,,,,,1470740995.997753,6.087860107421875,-23.23036956787109,-41.98102569580078,186.6465759277344,183.0506896972656,20,254992.7195614167,0.074554443359375,0.137176513671875,-0.9783477783203125,254992.71828575,-0.05691015459833927,-0.0004069310145641076,0.06335979812629317,,,,,,,,,,,,,,,,,,,,,,,,,,,,,,,,,0.0.0.0,10.165.73.122,5,0
2016-08-09 13:09:56.020,215,6B5B5B79-A063-42A5-9845-86B7C35C751C,,,,,,,,,,,,,,,,,254992.7391834167,0.0593109130859375,0.1807861328125,-1.171173095703125,,,,,,,,,,,,,,,,,,,,,,,,,,,,,,,,,,,,,0.0.0.0,10.165.73.122,5,0
2016-08-09 13:09:56.040,216,6B5B5B79-A063-42A5-9845-86B7C35C751C,,,,,,,,,,,,,,,,,254992.7588064167,0.002838134765625,0.078155517578125,-0.8589019775390625,254992.73827475,-0.05704597581393332,-0.05332474082276559,0.08162934952034576,,,,,,,,,,,,,,,,,,,,,,,,,,,,,,,,,0.0.0.0,10.165.73.122,5,0
2016-08-09 13:09:56.058,217,6B5B5B79-A063-42A5-9845-86B7C35C751C,,,,,,,,,,1470740996.042821,7.144683837890625,-22.63607025146484,-42.57393646240234,186.4598999023438,182.864013671875,20,254992.7784294167,-0.0815887451171875,0.08526611328125,-0.875274658203125,254992.77828375,0.00358781062055475,-0.07448968095395232,0.08980312353801695,,,,,,,,,,,,,,,,,,,,,,,,,,,,,,,,,0.0.0.0,10.165.73.122,5,0
2016-08-09 13:09:56.077,218,6B5B5B79-A063-42A5-9845-86B7C35C751C,1470740995.999973,51.02463619322612,13.68285192177974,228.4116,1.97,60.1171875,3,5,-9999,1470740996.072797,6.6171875,-23.01029205322266,-43.10181427001953,186.3520355224609,182.7561492919922,20,254992.7980524167,-0.07379150390625,0.1194915771484375,-0.902801513671875,,,,,,,,,,,,,,,,,,,,,,,,,,,,,,,,,,,,,0.0.0.0,10.165.73.122,5,0
2016-08-09 13:09:56.097,219,6B5B5B79-A063-42A5-9845-86B7C35C751C,,,,,,,,,,,,,,,,,254992.8176444167,0.068695068359375,0.1467132568359375,-1.120651245117188,254992.79827275,0.03450498034750264,-0.004447745336541336,0.08461155730901648,,,,,,,,,,,,,,,,,,,,,,,,,,,,,,,,,0.0.0.0,10.165.73.122,5,0
2016-08-09 13:09:56.121,220,6B5B5B79-A063-42A5-9845-86B7C35C751C,,,,,,,,,,1470740996.117835,5.787750244140625,-23.30492401123047,-42.28385162353516,186.0847625732422,182.4888763427734,20,254992.8372674167,0.15264892578125,0.2127532958984375,-1.220733642578125,254992.81829175,0.001362473213684538,-0.04568280007478322,0.1024938850805715,,,,,,,,,,,,,,,,,,,,,,,,,,,,,,,,,0.0.0.0,10.165.73.122,5,0
2016-08-09 13:09:56.136,221,6B5B5B79-A063-42A5-9845-86B7C35C751C,,,,,,,,,,,,,,,,,254992.8568904167,0.0634002685546875,0.017822265625,-0.8734283447265625,254992.83828075,0.01863786657281054,-0.06194139852971697,0.07073915119079373,,,,,,,,,,,,,,,,,,,,,,,,,,,,,,,,,0.0.0.0,10.165.73.122,5,0
2016-08-09 13:09:56.156,222,6B5B5B79-A063-42A5-9845-86B7C35C751C,,,,,,,,,,1470740996.14789,6.986541748046875,-23.46006011962891,-42.41873931884766,185.9445343017578,182.3486480712891,20,254992.8765124167,0.0015106201171875,-0.0369415283203125,-0.922515869140625,254992.85830075,-0.03495026088176389,0.005449360222520137,0.1168888034046678,,,,,,,,,,,,,,,,,,,,,,,,,,,,,,,,,0.0.0.0,10.165.73.122,5,0
2016-08-09 13:09:56.175,223,6B5B5B79-A063-42A5-9845-86B7C35C751C,,,,,,,,,,,,,,,,,254992.8961354167,-0.23193359375,0.1705780029296875,-0.92803955078125,254992.87828975,-0.100963632718212,-0.05084027784183067,0.1163340669496043,,,,,,,,,,,,,,,,,,,,,,,,,,,,,,,,,0.0.0.0,10.165.73.122,5,0
2016-08-09 13:09:56.202,224,6B5B5B79-A063-42A5-9845-86B7C35C751C,,,,,,,,,,1470740996.192938,5.340469360351562,-22.92702484130859,-41.84220123291016,185.6840972900391,182.0882110595703,20,254992.9157584167,-0.049774169921875,0.1366424560546875,-1.19720458984375,254992.89830975,-0.05840631849874579,-0.05823108249901857,0.1210768905349265,,,,,,,,,,,,,,,,,,,,,,,,,,,,,,,,,0.0.0.0,10.165.73.122,5,0
2016-08-09 13:09:56.215,225,6B5B5B79-A063-42A5-9845-86B7C35C751C,,,,,,,,,,,,,,,,,254992.9353814167,0.0414276123046875,0.06634521484375,-1.157669067382812,254992.91829875,0.01418719175907012,-0.02344487234040356,0.09617340486548649,,,,,,,,,,,,,,,,,,,,,,,,,,,,,,,,,0.0.0.0,10.165.73.122,5,0
2016-08-09 13:09:56.234,226,6B5B5B79-A063-42A5-9845-86B7C35C751C,,,,,,,,,,1470740996.222956,6.013473510742188,-23.30675506591797,-42.65624237060547,185.5579071044922,181.9620208740234,20,254992.9550044167,0.139251708984375,-0.0401153564453125,-0.87451171875,254992.93831775,0.002571015716362497,-0.1212862149966067,0.08352418863593714,,,,,,,,,,,,,,,,,,,,,,,,,,,,,,,,,0.0.0.0,10.165.73.122,5,0
2016-08-09 13:09:56.254,227,6B5B5B79-A063-42A5-9845-86B7C35C751C,,,,,,,,,,,,,,,,,254992.9746264167,0.101348876953125,0.077880859375,-0.983123779296875,254992.95830675,-0.02070927326867417,-0.07475173600521612,0.06395421568159886,,,,,,,,,,,,,,,,,,,,,,,,,,,,,,,,,0.0.0.0,10.165.73.122,5,0
2016-08-09 13:09:56.286,228,6B5B5B79-A063-42A5-9845-86B7C35C751C,,,,,,,,,,1470740996.26804,6.3880615234375,-23.45955657958984,-43.17563629150391,185.3554534912109,181.7595672607422,20,254992.9942194167,-0.0825042724609375,0.2706146240234375,-1.005477905273438,254992.97832675,-0.03861796633502101,-0.1058137816954643,0.03825897222007833,,,,,,,,,,,,,,,,,,,,,,,,,,,,,,,,,0.0.0.0,10.165.73.122,5,0
2016-08-09 13:09:56.293,229,6B5B5B79-A063-42A5-9845-86B7C35C751C,,,,,,,,,,,,,,,,,254993.0138424167,-0.1060333251953125,0.04376220703125,-1.189041137695312,254992.99831575,-0.002409095522085679,-0.03147989566528164,0.0373771995831531,,,,,,,,,,,,,,,,,,,,,,,,,,,,,,,,,0.0.0.0,10.165.73.122,5,0
2016-08-09 13:09:56.313,230,6B5B5B79-A063-42A5-9845-86B7C35C751C,,,,,,,,,,1470740996.29771,6.457717895507812,-23.83257293701172,-42.27165985107422,185.2722625732422,181.6763763427734,20,254993.0334644167,-0.1064910888671875,-0.0981597900390625,-1.06695556640625,254993.01833475,-0.05782308622001844,-0.07177299032596249,0.04328941720312901,,,,,,,,,,,,,,,,,,,,,,,,,,,,,,,,,0.0.0.0,10.165.73.122,5,0
2016-08-09 13:09:56.332,231,6B5B5B79-A063-42A5-9845-86B7C35C751C,,,,,,,,,,,,,,,,,254993.0530874167,-0.0294189453125,0.1019134521484375,-1.1451416015625,254993.03832375,-0.09821098941550611,-0.07187126097018642,0.03325968622178159,,,,,,,,,,,,,,,,,,,,,,,,,,,,,,,,,0.0.0.0,10.165.73.122,5,0
2016-08-09 13:09:56.367,232,6B5B5B79-A063-42A5-9845-86B7C35C751C,,,,,,,,,,1470740996.34283,6.237213134765625,-23.53376007080078,-43.10172271728516,185.2008819580078,181.6049957275391,20,254993.0727104167,0.121673583984375,0.18267822265625,-1.09576416015625,254993.05831275,-0.07069574166502544,-0.07589023737122499,0.0559564766119819,,,,,,,,,,,,,,,,,,,,,,,,,,,,,,,,,0.0.0.0,10.165.73.122,5,0
2016-08-09 13:09:56.372,233,6B5B5B79-A063-42A5-9845-86B7C35C751C,,,,,,,,,,,,,,,,,254993.0923334167,0.1186676025390625,-0.0045166015625,-0.9616546630859375,254993.07833275,-0.00336197456011603,-0.08154998731986139,0.02257854603780079,,,,,,,,,,,,,,,,,,,,,,,,,,,,,,,,,0.0.0.0,10.165.73.122,5,0
2016-08-09 13:09:56.391,234,6B5B5B79-A063-42A5-9845-86B7C35C751C,,,,,,,,,,1470740996.372801,5.7864990234375,-23.53104400634766,-42.73194122314453,185.1678009033203,181.5719146728516,20,254993.1119564167,0.0649566650390625,-0.0049285888671875,-0.792266845703125,254993.09832175,0.01481037145414866,-0.08908273846315051,0.01319915899465072,,,,,,,,,,,,,,,,,,,,,,,,,,,,,,,,,0.0.0.0,10.165.73.122,5,0
2016-08-09 13:09:56.411,235,6B5B5B79-A063-42A5-9845-86B7C35C751C,,,,,,,,,,,,,,,,,254993.1315484167,-0.1217498779296875,0.1436920166015625,-0.926544189453125,254993.11834075,-0.0149461926697427,-0.03711780769297938,0.005272526326138876,,,,,,,,,,,,,,,,,,,,,,,,,,,,,,,,,0.0.0.0,10.165.73.122,5,0
2016-08-09 13:09:56.439,236,6B5B5B79-A063-42A5-9845-86B7C35C751C,,,,,,,,,,1470740996.418058,4.73712158203125,-23.45168304443359,-42.66968536376953,185.1412658691406,181.5453796386719,20,254993.1511714167,-0.0962066650390625,0.16082763671875,-1.046798706054688,254993.13832975,-0.03829039752094127,-0.04466147779673783,-0.005619536216176201,,,,,,,,,,,,,,,,,,,,,,,,,,,,,,,,,0.0.0.0,10.165.73.122,5,0
2016-08-09 13:09:56.450,237,6B5B5B79-A063-42A5-9845-86B7C35C751C,,,,,,,,,,1470740996.44779,6.0086669921875,-23.90784454345703,-43.10117340087891,185.1142730712891,181.5183868408203,20,254993.1707934167,-0.0404510498046875,0.0912322998046875,-1.0970458984375,254993.15834975,-0.01272884474614273,0.01161724130714365,-0.006566023667590362,,,,,,,,,,,,,,,,,,,,,,,,,,,,,,,,,0.0.0.0,10.165.73.122,5,0
2016-08-09 13:09:56.470,238,6B5B5B79-A063-42A5-9845-86B7C35C751C,,,,,,,,,,,,,,,,,254993.1904164167,0.0626373291015625,0.1033935546875,-1.00982666015625,254993.17833875,-0.0639558135782529,-0.09654997584362369,0.009174057323104961,,,,,,,,,,,,,,,,,,,,,,,,,,,,,,,,,0.0.0.0,10.165.73.122,5,0
2016-08-09 13:09:56.489,239,6B5B5B79-A063-42A5-9845-86B7C35C751C,,,,,,,,,,,,,,,,,254993.2100394167,0.076629638671875,0.2324371337890625,-1.245468139648438,254993.19835775,-0.01416109278038734,-0.03036323222021141,0.04257861950818686,,,,,,,,,,,,,,,,,,,,,,,,,,,,,,,,,0.0.0.0,10.165.73.122,5,0
2016-08-09 13:09:56.522,240,6B5B5B79-A063-42A5-9845-86B7C35C751C,,,,,,,,,,1470740996.492844,5.56109619140625,-23.60552215576172,-42.88388824462891,185.1260681152344,181.5301818847656,20,254993.2296624167,0.191436767578125,0.086700439453125,-1.070114135742188,254993.21834675,-0.03234142827792227,-0.07167471968173857,0.05315882588685366,,,,,,,,,,,,,,,,,,,,,,,,,,,,,,,,,0.0.0.0,10.165.73.122,5,0
2016-08-09 13:09:56.528,241,6B5B5B79-A063-42A5-9845-86B7C35C751C,,,,,,,,,,1470740996.522818,5.567108154296875,-23.00592803955078,-43.03891754150391,185.1219177246094,181.5260314941406,20,254993.2492854167,0.1642303466796875,-0.1260223388671875,-0.987060546875,254993.23836675,-0.06325060852159993,-0.02171381763185206,0.05695329780799856,,,,,,,,,,,,,,,,,,,,,,,,,,,,,,,,,0.0.0.0,10.165.73.122,5,0
2016-08-09 13:09:56.548,242,6B5B5B79-A063-42A5-9845-86B7C35C751C,,,,,,,,,,,,,,,,,254993.2689074167,-0.008148193359375,0.161590576171875,-0.96685791015625,254993.25835575,-0.09727408934401624,-0.04195863560641641,0.05024612660263399,,,,,,,,,,,,,,,,,,,,,,,,,,,,,,,,,0.0.0.0,10.165.73.122,5,0
2016-08-09 13:09:56.568,243,6B5B5B79-A063-42A5-9845-86B7C35C751C,,,,,,,,,,,,,,,,,254993.2885304167,0.0172119140625,0.155853271484375,-1.15008544921875,254993.27837475,-0.05368400125381728,-0.001512675499165007,0.0591328288441194,,,,,,,,,,,,,,,,,,,,,,,,,,,,,,,,,0.0.0.0,10.165.73.122,5,0
2016-08-09 13:09:56.600,244,6B5B5B79-A063-42A5-9845-86B7C35C751C,,,,,,,,,,1470740996.598974,5.415206909179688,-23.07881927490234,-42.44005584716797,185.0785980224609,181.4827117919922,20,254993.3081234167,-0.067626953125,-0.1307525634765625,-0.911041259765625,254993.29836375,-0.02030979910516229,-0.03175286967701476,0.01053093789850033,,,,,,,,,,,,,,,,,,,,,,,,,,,,,,,,,0.0.0.0,10.165.73.122,5,0
2016-08-09 13:09:56.607,245,6B5B5B79-A063-42A5-9845-86B7C35C751C,,,,,,,,,,,,,,,,,254993.3277454167,0.0347747802734375,-0.0591888427734375,-0.8200836181640625,254993.31838375,-0.0746670474825516,-0.06460056487816108,0.01750016415512869,,,,,,,,,,,,,,,,,,,,,,,,,,,,,,,,,0.0.0.0,10.165.73.122,5,0
2016-08-09 13:09:56.626,246,6B5B5B79-A063-42A5-9845-86B7C35C751C,,,,,,,,,,,,,,,,,254993.3473684167,0.0147705078125,0.21282958984375,-1.084136962890625,,,,,,,,,,,,,,,,,,,,,,,,,,,,,,,,,,,,,0.0.0.0,10.165.73.122,5,0
2016-08-09 13:09:56.646,247,6B5B5B79-A063-42A5-9845-86B7C35C751C,,,,,,,,,,1470740996.642873,5.114364624023438,-23.15244293212891,-42.36788177490234,185.0782928466797,181.4824066162109,20,254993.3669914167,-0.12628173828125,0.240386962890625,-1.193496704101562,254993.35836175,-0.1086026439889953,-0.191172355690248,-0.0006407565582730647,,,,,,,,,,,,,,,,,,,,,,,,,,,,,,,,,0.0.0.0,10.165.73.122,5,0
2016-08-09 13:09:56.674,248,6B5B5B79-A063-42A5-9845-86B7C35C751C,,,,,,,,,,1470740996.672834,5.114791870117188,-23.07706451416016,-42.21852874755859,185.0805358886719,181.4846496582031,20,254993.3866144167,-0.0770263671875,-0.1609954833984375,-0.7694549560546875,254993.37838175,-0.04167634053086802,-0.1017511294525485,0.02008982199912174,,,,,,,,,,,,,,,,,,,,,,,,,,,,,,,,,0.0.0.0,10.165.73.122,5,0
2016-08-09 13:09:56.685,249,6B5B5B79-A063-42A5-9845-86B7C35C751C,,,,,,,,,,,,,,,,,254993.4062374167,-0.0583038330078125,0.02069091796875,-0.870025634765625,,,,,,,,,,,,,,,,,,,,,,,,,,,,,,,,,,,,,0.0.0.0,10.165.73.122,5,0
2016-08-09 13:09:56.705,250,6B5B5B79-A063-42A5-9845-86B7C35C751C,,,,,,,,,,,,,,,,,254993.4258594167,-0.0808258056640625,0.0026397705078125,-1.057540893554688,254993.41838975,-0.1525362798598145,-0.09520401422869765,0.03593829364618329,,,,,,,,,,,,,,,,,,,,,,,,,,,,,,,,,0.0.0.0,10.165.73.122,5,0
2016-08-09 13:09:56.725,251,6B5B5B79-A063-42A5-9845-86B7C35C751C,,,,,,,,,,1470740996.718107,3.9925537109375,-22.77242279052734,-42.15901947021484,185.0520324707031,181.4561462402344,20,254993.4454824167,-0.182373046875,0.1398468017578125,-0.8211822509765625,254993.43837875,-0.1066010121136917,-0.113466641403916,0.01622530894130776,,,,,,,,,,,,,,,,,,,,,,,,,,,,,,,,,0.0.0.0,10.165.73.122,5,0
2016-08-09 13:09:56.760,252,6B5B5B79-A063-42A5-9845-86B7C35C751C,,,,,,,,,,1470740996.747842,4.9638671875,-23.37889862060547,-43.19269561767578,185.0474243164062,181.4515380859375,20,254993.4651054167,-0.02630615234375,-0.112762451171875,-0.9910888671875,,,,,,,,,,,,,,,,,,,,,,,,,,,,,,,,,,,,,0.0.0.0,10.165.73.122,5,0
2016-08-09 13:09:56.764,253,6B5B5B79-A063-42A5-9845-86B7C35C751C,,,,,,,,,,,,,,,,,254993.4846974167,-0.192291259765625,0.07623291015625,-0.78857421875,254993.47838775,-0.1308821170363802,-0.1647298292268513,-0.01161511077827159,,,,,,,,,,,,,,,,,,,,,,,,,,,,,,,,,0.0.0.0,10.165.73.122,5,0
2016-08-09 13:09:56.783,254,6B5B5B79-A063-42A5-9845-86B7C35C751C,,,,,,,,,,,,,,,,,254993.5043204167,-0.1142425537109375,0.075347900390625,-1.050872802734375,254993.49840675,-0.07525241029015102,-0.02595916272554737,-0.04658348115544802,,,,,,,,,,,,,,,,,,,,,,,,,,,,,,,,,0.0.0.0,10.165.73.122,5,0
2016-08-09 13:09:56.803,255,6B5B5B79-A063-42A5-9845-86B7C35C751C,,,,,,,,,,1470740996.792881,5.11370849609375,-23.37931060791016,-43.11595916748047,185.1250915527344,181.5292053222656,20,254993.5239434167,-0.120147705078125,0.0218048095703125,-0.8442535400390625,,,,,,,,,,,,,,,,,,,,,,,,,,,,,,,,,,,,,0.0.0.0,10.165.73.122,5,0
2016-08-09 13:09:56.838,256,6B5B5B79-A063-42A5-9845-86B7C35C751C,,,,,,,,,,1470740996.822909,4.207595825195312,-23.89919281005859,-42.52196502685547,185.1848754882812,181.5889892578125,20,254993.5435664167,-0.090667724609375,0.0682830810546875,-0.8056488037109375,254993.53841575,-0.06450921845277137,-0.02927639617935007,-0.05925293740928198,,,,,,,,,,,,,,,,,,,,,,,,,,,,,,,,,0.0.0.0,10.165.73.122,5,0
2016-08-09 13:09:56.842,257,6B5B5B79-A063-42A5-9845-86B7C35C751C,,,,,,,,,,,,,,,,,254993.5631884167,-0.040252685546875,0.0746307373046875,-0.9527740478515625,254993.55840475,-0.07192239366311594,-0.0505723638361687,-0.06460482593590522,,,,,,,,,,,,,,,,,,,,,,,,,,,,,,,,,0.0.0.0,10.165.73.122,5,0
2016-08-09 13:09:56.862,258,6B5B5B79-A063-42A5-9845-86B7C35C751C,,,,,,,,,,,,,,,,,254993.58267975,-0.123199462890625,0.1473388671875,-0.950592041015625,,,,,,,,,,,,,,,,,,,,,,,,,,,,,,,,,,,,,0.0.0.0,10.165.73.122,5,0
2016-08-09 13:09:56.882,259,6B5B5B79-A063-42A5-9845-86B7C35C751C,,,,,,,,,,1470740996.868034,4.6683349609375,-23.00385284423828,-43.64928436279297,185.3504180908203,181.7545318603516,20,254993.60230275,-0.1064910888671875,0.1420440673828125,-0.87432861328125,254993.5783216667,-0.02820447384059318,-0.0835838434443549,-0.0725730039174223,,,,,,,,,,,,,,,,,,,,,,,,,,,,,,,,,0.0.0.0,10.165.73.122,5,0
2016-08-09 13:09:56.925,260,6B5B5B79-A063-42A5-9845-86B7C35C751C,,,,,,,,,,1470740996.897882,4.965591430664062,-23.22928619384766,-43.34395599365234,185.475341796875,181.8794555664062,20,254993.62192475,-0.08984375,-0.0512542724609375,-0.7038421630859375,254993.6183306667,-0.02148052472036112,-0.06067692964414734,-0.1173434050027444,,,,,,,,,,,,,,,,,,,,,,,,,,,,,,,,,0.0.0.0,10.165.73.122,5,0
2016-08-09 13:09:56.926,261,6B5B5B79-A063-42A5-9845-86B7C35C751C,,,,,,,,,,,,,,,,,254993.64154775,-0.0888214111328125,0.0554046630859375,-1.011383056640625,,,,,,,,,,,,,,,,,,,,,,,,,,,,,,,,,,,,,0.0.0.0,10.165.73.122,5,0
2016-08-09 13:09:56.941,262,6B5B5B79-A063-42A5-9845-86B7C35C751C,,,,,,,,,,,,,,,,,254993.66117075,-0.0078887939453125,0.0935821533203125,-0.9137420654296875,254993.6383196667,-0.04558586101110434,-0.05589069653305694,-0.1687924814697672,,,,,,,,,,,,,,,,,,,,,,,,,,,,,,,,,0.0.0.0,10.165.73.122,5,0
2016-08-09 13:09:56.960,263,6B5B5B79-A063-42A5-9845-86B7C35C751C,,,,,,,,,,1470740996.942929,4.667770385742188,-23.07904815673828,-43.72364044189453,185.8825531005859,182.2866668701172,20,254993.68076275,-0.0048065185546875,-0.0823822021484375,-0.8179168701171875,254993.6783276667,-0.03930932295400559,0.05153110182859723,-0.1540947617297289,,,,,,,,,,,,,,,,,,,,,,,,,,,,,,,,,0.0.0.0,10.165.73.122,5,0
2016-08-09 13:09:56.981,264,6B5B5B79-A063-42A5-9845-86B7C35C751C,,,,,,,,,,1470740996.972881,4.890182495117188,-23.30435943603516,-43.49417877197266,186.1147003173828,182.5188140869141,20,254993.70038575,0.050201416015625,0.0358428955078125,-0.91552734375,,,,,,,,,,,,,,,,,,,,,,,,,,,,,,,,,,,,,0.0.0.0,10.165.73.122,5,0
2016-08-09 13:09:57.001,265,6B5B5B79-A063-42A5-9845-86B7C35C751C,,,,,,,,,,,,,,,,,254993.72000875,-0.1112518310546875,0.1240386962890625,-0.9830322265625,254993.6983166667,-0.07854461002970697,0.05237479126193433,-0.1758426678235339,,,,,,,,,,,,,,,,,,,,,,,,,,,,,,,,,0.0.0.0,10.165.73.122,5,0
2016-08-09 13:09:57.019,266,6B5B5B79-A063-42A5-9845-86B7C35C751C,,,,,,,,,,1470740997.01792,4.895004272460938,-22.70326995849609,-43.04921722412109,186.6327819824219,183.0368957519531,20,254993.73963175,0.05072021484375,-0.031494140625,-0.7453765869140625,254993.7383256667,0.04379568412635308,0.2118270341565756,-0.1611063322476895,,,,,,,,,,,,,,,,,,,,,,,,,,,,,,,,,0.0.0.0,10.165.73.122,5,0
2016-08-09 13:09:57.038,267,6B5B5B79-A063-42A5-9845-86B7C35C751C,,,,,,,,,,,,,,,,,254993.75922375,0.0416107177734375,-0.0157012939453125,-0.746734619140625,,,,,,,,,,,,,,,,,,,,,,,,,,,,,,,,,,,,,0.0.0.0,10.165.73.122,5,0
2016-08-09 13:09:57.062,268,6B5B5B79-A063-42A5-9845-86B7C35C751C,1470740996.999973,51.02465052628054,13.68288972416304,228.3284,3.09,61.5234375,3,5,-9999,1470740997.048266,6.014785766601562,-23.23252105712891,-42.95685577392578,186.9111175537109,183.3152313232422,25,254993.77884675,0.046234130859375,-0.0298919677734375,-1.081329345703125,254993.7583446667,-0.004750546752483345,0.1379546739433036,-0.2189983943399409,,,,,,,,,,,,,,,,,,,,,,,,,,,,,,,,,0.0.0.0,10.165.73.122,5,0
2016-08-09 13:09:57.082,269,6B5B5B79-A063-42A5-9845-86B7C35C751C,,,,,,,,,,,,,,,,,254993.79846975,-0.088470458984375,0.0411376953125,-0.790130615234375,254993.7983536667,0.07480872765254382,0.1670345288342059,-0.1787742755514931,,,,,,,,,,,,,,,,,,,,,,,,,,,,,,,,,0.0.0.0,10.165.73.122,5,0
2016-08-09 13:09:57.097,270,6B5B5B79-A063-42A5-9845-86B7C35C751C,,,,,,,,,,1470740997.093168,6.318359375,-22.93466949462891,-43.33089447021484,187.4871368408203,183.8912506103516,25,254993.81806175,0.1269378662109375,-0.0526885986328125,-0.945404052734375,,,,,,,,,,,,,,,,,,,,,,,,,,,,,,,,,,,,,0.0.0.0,10.165.73.122,5,0
2016-08-09 13:09:57.117,271,6B5B5B79-A063-42A5-9845-86B7C35C751C,,,,,,,,,,,,,,,,,254993.83768475,-0.0628509521484375,-0.0252838134765625,-0.948028564453125,254993.8183426667,0.0908835679922621,0.2051270534861542,-0.1925667868370135,,,,,,,,,,,,,,,,,,,,,,,,,,,,,,,,,0.0.0.0,10.165.73.122,5,0
2016-08-09 13:09:57.137,272,6B5B5B79-A063-42A5-9845-86B7C35C751C,,,,,,,,,,1470740997.122907,5.341323852539062,-22.85222625732422,-41.91782379150391,187.7466735839844,184.1507873535156,25,254993.85730675,0.0074005126953125,0.04705810546875,-0.928375244140625,254993.8383626667,0.03737533537039005,0.1343396990796301,-0.1566969364308453,,,,,,,,,,,,,,,,,,,,,,,,,,,,,,,,,0.0.0.0,10.165.73.122,5,0
2016-08-09 13:09:57.160,273,6B5B5B79-A063-42A5-9845-86B7C35C751C,,,,,,,,,,,,,,,,,254993.87692975,0.0302886962890625,-0.084930419921875,-0.8177642822265625,254993.8583516667,0.09591960561360194,0.2140166852048387,-0.1541546828542556,,,,,,,,,,,,,,,,,,,,,,,,,,,,,,,,,0.0.0.0,10.165.73.122,5,0
2016-08-09 13:09:57.176,274,6B5B5B79-A063-42A5-9845-86B7C35C751C,,,,,,,,,,1470740997.168112,6.694320678710938,-22.78559112548828,-43.10283660888672,188.1836547851562,184.5877685546875,25,254993.89652275,0.039306640625,-0.067108154296875,-0.76434326171875,254993.8783706667,0.1138043302301381,0.1909459869975913,-0.1251118459025055,,,,,,,,,,,,,,,,,,,,,,,,,,,,,,,,,0.0.0.0,10.165.73.122,5,0
2016-08-09 13:09:57.196,275,6B5B5B79-A063-42A5-9845-86B7C35C751C,,,,,,,,,,,,,,,,,254993.91614475,0.0594940185546875,-0.0183868408203125,-0.984893798828125,254993.8983596667,0.04009815126888706,0.2178252718797611,-0.09399334119714763,,,,,,,,,,,,,,,,,,,,,,,,,,,,,,,,,0.0.0.0,10.165.73.122,5,0
2016-08-09 13:09:57.215,276,6B5B5B79-A063-42A5-9845-86B7C35C751C,,,,,,,,,,1470740997.197829,6.914840698242188,-23.16033172607422,-42.64711761474609,188.3564605712891,184.7605743408203,25,254993.93576775,0.090118408203125,-0.057464599609375,-0.95037841796875,254993.9183796667,-0.03119094268700804,0.1232356489145447,-0.100896254742633,,,,,,,,,,,,,,,,,,,,,,,,,,,,,,,,,0.0.0.0,10.165.73.122,5,0
2016-08-09 13:09:57.239,277,6B5B5B79-A063-42A5-9845-86B7C35C751C,,,,,,,,,,,,,,,,,254993.95535975,0.0056610107421875,0.02850341796875,-0.8980712890625,254993.9383686667,0.02292662119227415,0.1755281484987956,-0.07593631005808336,,,,,,,,,,,,,,,,,,,,,,,,,,,,,,,,,0.0.0.0,10.165.73.122,5,0
2016-08-09 13:09:57.254,278,6B5B5B79-A063-42A5-9845-86B7C35C751C,,,,,,,,,,1470740997.242977,6.544418334960938,-22.63332366943359,-42.43085479736328,188.5974426269531,185.0015563964844,25,254993.97498275,0.1521759033203125,-0.1232757568359375,-0.8823394775390625,254993.9583576667,0.02279878945995034,0.1449028612273204,-0.05879434106957034,,,,,,,,,,,,,,,,,,,,,,,,,,,,,,,,,0.0.0.0,10.165.73.122,5,0
2016-08-09 13:09:57.274,279,6B5B5B79-A063-42A5-9845-86B7C35C751C,,,,,,,,,,1470740997.272965,7.367263793945312,-22.93750762939453,-42.79381561279297,188.6657257080078,185.0698394775391,25,254993.99460575,0.0542144775390625,0.0460357666015625,-1.140716552734375,254993.9783766667,0.02694586390942173,0.1758557173128753,-0.04390860215657243,,,,,,,,,,,,,,,,,,,,,,,,,,,,,,,,,0.0.0.0,10.165.73.122,5,0
2016-08-09 13:09:57.293,280,6B5B5B79-A063-42A5-9845-86B7C35C751C,,,,,,,,,,,,,,,,,254994.01419775,0.118804931640625,-0.125213623046875,-0.948577880859375,254993.9983656667,-0.06148280219000533,0.02299426548396216,-0.03697479594244213,,,,,,,,,,,,,,,,,,,,,,,,,,,,,,,,,0.0.0.0,10.165.73.122,5,0
2016-08-09 13:09:57.320,281,6B5B5B79-A063-42A5-9845-86B7C35C751C,,,,,,,,,,1470740997.318311,6.987808227539062,-23.23394012451172,-41.97064971923828,188.7423706054688,185.146484375,25,254994.03382075,0.2099151611328125,-0.1578521728515625,-0.9890899658203125,254994.0183856667,0.05021017392791793,0.146336174526001,-0.02225337406870211,,,,,,,,,,,,,,,,,,,,,,,,,,,,,,,,,0.0.0.0,10.165.73.122,5,0
2016-08-09 13:09:57.333,282,6B5B5B79-A063-42A5-9845-86B7C35C751C,,,,,,,,,,,,,,,,,254994.05344375,0.1811065673828125,0.0457000732421875,-0.9931640625,254994.0383746667,-0.06707011415699157,0.03078907167851508,-0.001872468562434712,,,,,,,,,,,,,,,,,,,,,,,,,,,,,,,,,0.0.0.0,10.165.73.122,5,0
2016-08-09 13:09:57.353,283,6B5B5B79-A063-42A5-9845-86B7C35C751C,,,,,,,,,,1470740997.347896,6.91796875,-22.78479766845703,-42.42527008056641,188.7362060546875,185.1403198242188,25,254994.07306675,0.2351837158203125,0.1162109375,-1.216049194335938,254994.0583936667,-0.05032202669370126,-0.01554886602442763,0.03681793575423646,,,,,,,,,,,,,,,,,,,,,,,,,,,,,,,,,0.0.0.0,10.165.73.122,5,0
2016-08-09 13:09:57.372,284,6B5B5B79-A063-42A5-9845-86B7C35C751C,,,,,,,,,,,,,,,,,254994.09265875,0.243499755859375,-0.13958740234375,-1.051589965820312,254994.0783826667,0.001682052544494047,-0.003636812784612208,0.05973417061825929,,,,,,,,,,,,,,,,,,,,,,,,,,,,,,,,,0.0.0.0,10.165.73.122,5,0
2016-08-09 13:09:57.401,285,6B5B5B79-A063-42A5-9845-86B7C35C751C,,,,,,,,,,1470740997.392993,7.589019775390625,-23.01020050048828,-41.51563262939453,188.5968017578125,185.0009155273438,25,254994.11228175,0.1756134033203125,-0.125,-1.091949462890625,254994.0984026667,-0.0451981047563888,-0.09599310885968812,0.06374941859377177,,,,,,,,,,,,,,,,,,,,,,,,,,,,,,,,,0.0.0.0,10.165.73.122,5,0
2016-08-09 13:09:57.411,286,6B5B5B79-A063-42A5-9845-86B7C35C751C,,,,,,,,,,,,,,,,,254994.13190475,0.185882568359375,0.0862579345703125,-1.075912475585938,254994.1183916667,-0.09109342508616035,-0.09584024341311757,0.07818188748923818,,,,,,,,,,,,,,,,,,,,,,,,,,,,,,,,,0.0.0.0,10.165.73.122,5,0
2016-08-09 13:09:57.431,287,6B5B5B79-A063-42A5-9845-86B7C35C751C,,,,,,,,,,1470740997.422985,6.613067626953125,-23.08095550537109,-41.37625885009766,188.5038757324219,184.9079895019531,25,254994.15152675,0.2353057861328125,-0.098907470703125,-1.276473999023438,254994.1384106667,-0.08062187567996877,-0.09241382035462163,0.1017410094404061,,,,,,,,,,,,,,,,,,,,,,,,,,,,,,,,,0.0.0.0,10.165.73.122,5,0
2016-08-09 13:09:57.450,288,6B5B5B79-A063-42A5-9845-86B7C35C751C,,,,,,,,,,,,,,,,,254994.17114975,0.1988677978515625,-0.1673736572265625,-0.8056488037109375,254994.1583996667,0.003404052505339282,-0.09760405500307706,0.1143870298766474,,,,,,,,,,,,,,,,,,,,,,,,,,,,,,,,,0.0.0.0,10.165.73.122,5,0
2016-08-09 13:09:57.477,289,6B5B5B79-A063-42A5-9845-86B7C35C751C,,,,,,,,,,1470740997.468097,7.063980102539062,-23.23574066162109,-42.56975555419922,188.2255249023438,184.629638671875,25,254994.19077275,0.14935302734375,-0.055816650390625,-1.2484130859375,254994.1784196667,-0.05209782250856609,-0.09741843267509853,0.1319146245910039,,,,,,,,,,,,,,,,,,,,,,,,,,,,,,,,,0.0.0.0,10.165.73.122,5,0
2016-08-09 13:09:57.490,290,6B5B5B79-A063-42A5-9845-86B7C35C751C,,,,,,,,,,,,,,,,,254994.21036475,0.041412353515625,-0.0005950927734375,-1.045883178710938,254994.1984086667,-0.04060148871491204,-0.1565994647349484,0.160988354211399,,,,,,,,,,,,,,,,,,,,,,,,,,,,,,,,,0.0.0.0,10.165.73.122,5,0
2016-08-09 13:09:57.509,291,6B5B5B79-A063-42A5-9845-86B7C35C751C,,,,,,,,,,1470740997.497893,6.91448974609375,-23.00809478759766,-41.74840545654297,188.0411834716797,184.4452972412109,25,254994.22998775,0.090972900390625,0.0310821533203125,-1.141693115234375,254994.2184276667,0.05108528866211796,-0.1238391212175566,0.1458914266239578,,,,,,,,,,,,,,,,,,,,,,,,,,,,,,,,,0.0.0.0,10.165.73.122,5,0
2016-08-09 13:09:57.529,292,6B5B5B79-A063-42A5-9845-86B7C35C751C,,,,,,,,,,,,,,,,,254994.24961075,0.02130126953125,-0.0502777099609375,-1.03826904296875,254994.2384166667,-0.0002135855194243549,-0.2096046262269045,0.1711645590527007,,,,,,,,,,,,,,,,,,,,,,,,,,,,,,,,,0.0.0.0,10.165.73.122,5,0
2016-08-09 13:09:57.562,293,6B5B5B79-A063-42A5-9845-86B7C35C751C,,,,,,,,,,1470740997.543235,5.787338256835938,-23.38028717041016,-42.43321990966797,187.6169128417969,184.0210266113281,25,254994.26923375,-0.0244903564453125,-0.1030120849609375,-0.927703857421875,254994.2584066667,0.05426350510701852,-0.2289620789262544,0.1483479264134469,,,,,,,,,,,,,,,,,,,,,,,,,,,,,,,,,0.0.0.0,10.165.73.122,5,0
2016-08-09 13:09:57.568,294,6B5B5B79-A063-42A5-9845-86B7C35C751C,,,,,,,,,,,,,,,,,254994.28885675,-0.00384521484375,-0.131744384765625,-1.05322265625,254994.2784256667,0.03389777961896458,-0.2436454175964063,0.1662944363672728,,,,,,,,,,,,,,,,,,,,,,,,,,,,,,,,,0.0.0.0,10.165.73.122,5,0
2016-08-09 13:09:57.588,295,6B5B5B79-A063-42A5-9845-86B7C35C751C,,,,,,,,,,1470740997.573385,6.238174438476562,-23.30727386474609,-42.50363922119141,187.3851776123047,183.7892913818359,25,254994.30844875,0.0122222900390625,-0.000152587890625,-0.7726287841796875,254994.2984146667,0.0220578980446903,-0.2986982836505243,0.1833778158118041,,,,,,,,,,,,,,,,,,,,,,,,,,,,,,,,,0.0.0.0,10.165.73.122,5,0
2016-08-09 13:09:57.607,296,6B5B5B79-A063-42A5-9845-86B7C35C751C,,,,,,,,,,,,,,,,,254994.32807175,-0.115814208984375,0.117462158203125,-1.0206298828125,254994.3184346667,-0.02478231183984136,-0.3018954085391644,0.1818166707807997,,,,,,,,,,,,,,,,,,,,,,,,,,,,,,,,,0.0.0.0,10.165.73.122,5,0
2016-08-09 13:09:57.641,297,6B5B5B79-A063-42A5-9845-86B7C35C751C,,,,,,,,,,1470740997.618407,5.260528564453125,-23.60356903076172,-42.58737945556641,186.9013977050781,183.3055114746094,25,254994.34769375,-0.1373443603515625,-0.000885009765625,-1.060638427734375,254994.3384236667,0.04472885577231684,-0.3670965162431384,0.1422293138089898,,,,,,,,,,,,,,,,,,,,,,,,,,,,,,,,,0.0.0.0,10.165.73.122,5,0
2016-08-09 13:09:57.647,298,6B5B5B79-A063-42A5-9845-86B7C35C751C,,,,,,,,,,,,,,,,,254994.36731675,-0.0975341796875,-0.361663818359375,-0.8413543701171875,,,,,,,,,,,,,,,,,,,,,,,,,,,,,,,,,,,,,0.0.0.0,10.165.73.122,5,0
2016-08-09 13:09:57.666,299,6B5B5B79-A063-42A5-9845-86B7C35C751C,,,,,,,,,,1470740997.647922,4.282424926757812,-23.89929962158203,-42.44611358642578,186.6947174072266,183.0988311767578,25,254994.38693975,-0.0717010498046875,-0.183319091796875,-0.8585357666015625,254994.3784316667,-0.0380965193935835,-0.3132367463573759,0.1113369114801797,,,,,,,,,,,,,,,,,,,,,,,,,,,,,,,,,0.0.0.0,10.165.73.122,5,0
2016-08-09 13:09:57.686,300,6B5B5B79-A063-42A5-9845-86B7C35C751C,,,,,,,,,,,,,,,,,254994.40653175,-0.160369873046875,0.1238250732421875,-1.11224365234375,254994.3984516667,-0.1241240794541951,-0.4154901479915132,0.08190685090593201,,,,,,,,,,,,,,,,,,,,,,,,,,,,,,,,,0.0.0.0,10.165.73.122,5,0
2016-08-09 13:09:57.723,301,6B5B5B79-A063-42A5-9845-86B7C35C751C,,,,,,,,,,1470740997.693094,4.809036254882812,-23.90346527099609,-43.26500701904297,186.4247589111328,182.8288726806641,25,254994.42615475,-0.1031036376953125,0.018096923828125,-0.916595458984375,,,,,,,,,,,,,,,,,,,,,,,,,,,,,,,,,,,,,0.0.0.0,10.165.73.122,5,0
2016-08-09 13:09:57.725,302,6B5B5B79-A063-42A5-9845-86B7C35C751C,,,,,,,,,,1470740997.723078,3.982818603515625,-24.12630462646484,-43.72261810302734,186.3375549316406,182.7416687011719,25,254994.44577775,-0.089935302734375,-0.1015472412109375,-0.9141082763671875,254994.4384596667,-0.009646502100485017,-0.3344642707741795,0.009348228058396142,,,,,,,,,,,,,,,,,,,,,,,,,,,,,,,,,0.0.0.0,10.165.73.122,5,0
2016-08-09 13:09:57.745,303,6B5B5B79-A063-42A5-9845-86B7C35C751C,,,,,,,,,,,,,,,,,254994.46536975,-0.025543212890625,-0.021728515625,-1.016952514648438,254994.4584486667,-0.0902784977925961,-0.343353902492864,-0.02987693900516294,,,,,,,,,,,,,,,,,,,,,,,,,,,,,,,,,0.0.0.0,10.165.73.122,5,0
2016-08-09 13:09:57.765,304,6B5B5B79-A063-42A5-9845-86B7C35C751C,,,,,,,,,,,,,,,,,254994.48499275,-0.053741455078125,-0.03436279296875,-0.9414520263671875,,,,,,,,,,,,,,,,,,,,,,,,,,,,,,,,,,,,,0.0.0.0,10.165.73.122,5,0
2016-08-09 13:09:57.800,305,6B5B5B79-A063-42A5-9845-86B7C35C751C,,,,,,,,,,1470740997.798104,3.311050415039062,-23.89995574951172,-44.25727081298828,186.5307922363281,182.9349060058594,25,254994.50461575,0.032379150390625,-0.0572662353515625,-0.8272857666015625,254994.4984576667,-0.04174238692590198,-0.2826056001315025,-0.1126844709917598,,,,,,,,,,,,,,,,,,,,,,,,,,,,,,,,,0.0.0.0,10.165.73.122,5,0
2016-08-09 13:09:57.804,306,6B5B5B79-A063-42A5-9845-86B7C35C751C,,,,,,,,,,,,,,,,,254994.52423875,0.0522613525390625,0.1967010498046875,-1.111038208007812,254994.5184766667,-0.1030733889337728,-0.2969911973917835,-0.1698119395350495,,,,,,,,,,,,,,,,,,,,,,,,,,,,,,,,,0.0.0.0,10.165.73.122,5,0
2016-08-09 13:09:57.823,307,6B5B5B79-A063-42A5-9845-86B7C35C751C,,,,,,,,,,,,,,,,,254994.54383075,-0.0077056884765625,0.0396881103515625,-0.9732818603515625,,,,,,,,,,,,,,,,,,,,,,,,,,,,,,,,,,,,,0.0.0.0,10.165.73.122,5,0
2016-08-09 13:09:57.843,308,6B5B5B79-A063-42A5-9845-86B7C35C751C,,,,,,,,,,,,,,,,,254994.56345375,-0.0214691162109375,-0.0369110107421875,-0.922607421875,254994.5384656667,-0.01676619695870285,-0.2471613228675289,-0.1775505530306017,,,,,,,,,,,,,,,,,,,,,,,,,,,,,,,,,0.0.0.0,10.165.73.122,5,0
2016-08-09 13:09:57.882,309,6B5B5B79-A063-42A5-9845-86B7C35C751C,,,,,,,,,,1470740997.873192,3.1614990234375,-23.89990997314453,-44.48398590087891,187.2468719482422,183.6509857177734,25,254994.58307675,0.10626220703125,0.054412841796875,-0.9113311767578125,254994.5784746667,-0.01325242221645231,-0.09572226537682707,-0.2205776488663579,,,,,,,,,,,,,,,,,,,,,,,,,,,,,,,,,0.0.0.0,10.165.73.122,5,0
2016-08-09 13:09:57.883,310,6B5B5B79-A063-42A5-9845-86B7C35C751C,,,,,,,,,,,,,,,,,254994.60269875,0.0511932373046875,0.1944580078125,-1.038665771484375,,,,,,,,,,,,,,,,,,,,,,,,,,,,,,,,,,,,,0.0.0.0,10.165.73.122,5,0
2016-08-09 13:09:57.902,311,6B5B5B79-A063-42A5-9845-86B7C35C751C,,,,,,,,,,,,,,,,,254994.62229175,0.0229644775390625,0.012359619140625,-1.181533813476562,254994.5984636667,0.004086887008835599,-0.1354337256554346,-0.2607964413326256,,,,,,,,,,,,,,,,,,,,,,,,,,,,,,,,,0.0.0.0,10.165.73.122,5,0
2016-08-09 13:09:57.921,312,6B5B5B79-A063-42A5-9845-86B7C35C751C,,,,,,,,,,1470740997.918063,3.537460327148438,-23.75084686279297,-44.25592803955078,187.9866943359375,184.3908081054688,25,254994.64191375,-0.002899169921875,-0.2173004150390625,-0.9174957275390625,254994.6384716667,0.09390785372615608,-0.064799236695481,-0.3112018249684463,,,,,,,,,,,,,,,,,,,,,,,,,,,,,,,,,0.0.0.0,10.165.73.122,5,0
2016-08-09 13:09:57.941,313,6B5B5B79-A063-42A5-9845-86B7C35C751C,,,,,,,,,,,,,,,,,254994.66153675,0.1048583984375,-0.0634918212890625,-0.8470306396484375,,,,,,,,,,,,,,,,,,,,,,,,,,,,,,,,,,,,,0.0.0.0,10.165.73.122,5,0
2016-08-09 13:09:57.964,314,6B5B5B79-A063-42A5-9845-86B7C35C751C,,,,,,,,,,1470740997.947993,2.561187744140625,-23.74529266357422,-43.59220123291016,188.4331512451172,184.8372650146484,25,254994.68115975,0.0941619873046875,-0.397003173828125,-1.059524536132812,254994.6584916667,-0.003839745659676246,-0.01941417803056864,-0.3400989870085691,,,,,,,,,,,,,,,,,,,,,,,,,,,,,,,,,0.0.0.0,10.165.73.122,5,0
2016-08-09 13:09:57.980,315,6B5B5B79-A063-42A5-9845-86B7C35C751C,,,,,,,,,,,,,,,,,254994.70075175,-0.0293731689453125,0.416015625,-1.276535034179688,254994.6985006667,-0.09722455454774076,-0.02833656663066111,-0.3826597633374524,,,,,,,,,,,,,,,,,,,,,,,,,,,,,,,,,0.0.0.0,10.165.73.122,5,0
2016-08-09 13:09:58.000,316,6B5B5B79-A063-42A5-9845-86B7C35C751C,,,,,,,,,,1470740997.993168,3.16851806640625,-23.22571563720703,-44.78963470458984,189.5293273925781,185.9334411621094,25,254994.72037475,0.0378570556640625,0.258026123046875,-0.7822723388671875,,,,,,,,,,,,,,,,,,,,,,,,,,,,,,,,,,,,,0.0.0.0,10.165.73.122,5,0
2016-08-09 13:09:58.021,317,6B5B5B79-A063-42A5-9845-86B7C35C751C,,,,,,,,,,,,,,,,,254994.73999775,0.2851715087890625,-0.0123443603515625,-1.088760375976562,254994.7184896667,0.03378539422096323,0.07674271523615936,-0.3879376159857715,,,,,,,,,,,,,,,,,,,,,,,,,,,,,,,,,0.0.0.0,10.165.73.122,5,0
2016-08-09 13:09:58.041,318,6B5B5B79-A063-42A5-9845-86B7C35C751C,,,,,,,,,,1470740998.023042,3.3173828125,-23.37667083740234,-44.93665313720703,190.1035919189453,186.5077056884766,25,254994.75962075,-0.0471954345703125,-0.253509521484375,-0.9040069580078125,254994.7584976667,-0.0617608362078096,0.03706401183895978,-0.4261720871238211,,,,,,,,,,,,,,,,,,,,,,,,,,,,,,,,,0.0.0.0,10.165.73.122,5,0
2016-08-09 13:09:58.059,319,6B5B5B79-A063-42A5-9845-86B7C35C751C,,,,,,,,,,,,,,,,,254994.77921275,0.0441436767578125,-0.2244110107421875,-0.866180419921875,,,,,,,,,,,,,,,,,,,,,,,,,,,,,,,,,,,,,0.0.0.0,10.165.73.122,5,0
2016-08-09 13:09:58.078,320,6B5B5B79-A063-42A5-9845-86B7C35C751C,1470740997.999974,51.02466783491059,13.68293129840277,228.2201,3.49,56.953125,3,5,-9999,1470740998.068096,2.867706298828125,-22.99576568603516,-43.29505157470703,191.3242797851562,187.7283935546875,25,254994.79883575,0.12884521484375,0.1230926513671875,-1.063522338867188,254994.7785176667,-0.1098335570448299,0.1073789214681039,-0.4055594866027168,,,,,,,,,,,,,,,,,,,,,,,,,,,,,,,,,0.0.0.0,10.165.73.122,5,0
2016-08-09 13:09:58.101,321,6B5B5B79-A063-42A5-9845-86B7C35C751C,,,,,,,,,,1470740998.098385,3.249740600585938,-22.39899444580078,-43.97074127197266,192.0143280029297,188.4184417724609,25,254994.81845875,-0.1370086669921875,0.3916778564453125,-0.8978118896484375,254994.7985066667,-0.2244490861430061,-0.06731352708062481,-0.4564208034171591,,,,,,,,,,,,,,,,,,,,,,,,,,,,,,,,,0.0.0.0,10.165.73.122,5,0
2016-08-09 13:09:58.117,322,6B5B5B79-A063-42A5-9845-86B7C35C751C,,,,,,,,,,,,,,,,,254994.83805075,0.313201904296875,-0.1357879638671875,-0.967529296875,254994.8185256667,-0.0595594672507501,0.1559174291797791,-0.4360718558439726,,,,,,,,,,,,,,,,,,,,,,,,,,,,,,,,,0.0.0.0,10.165.73.122,5,0
2016-08-09 13:09:58.137,323,6B5B5B79-A063-42A5-9845-86B7C35C751C,,,,,,,,,,,,,,,,,254994.85767375,0.1090850830078125,-0.21600341796875,-0.76885986328125,254994.8385146667,0.03762673777729352,0.2139272029922121,-0.474635227376647,,,,,,,,,,,,,,,,,,,,,,,,,,,,,,,,,0.0.0.0,10.165.73.122,5,0
2016-08-09 13:09:58.157,324,6B5B5B79-A063-42A5-9845-86B7C35C751C,,,,,,,,,,1470740998.143172,3.5511474609375,-22.25019073486328,-43.96852874755859,193.3576354980469,189.7617492675781,25,254994.87729575,-0.026092529296875,0.082275390625,-0.9263458251953125,254994.8585036667,-0.08071828211142965,0.144049051781841,-0.4543917409826277,,,,,,,,,,,,,,,,,,,,,,,,,,,,,,,,,0.0.0.0,10.165.73.122,5,0
2016-08-09 13:09:58.176,325,6B5B5B79-A063-42A5-9845-86B7C35C751C,,,,,,,,,,1470740998.173038,4.003524780273438,-21.95142364501953,-43.74086761474609,194.0202484130859,190.4243621826172,25,254994.89691875,-0.1015472412109375,0.0416107177734375,-0.7930755615234375,254994.8785236667,-0.03936951039464138,0.2600547509690385,-0.4308110474266301,,,,,,,,,,,,,,,,,,,,,,,,,,,,,,,,,0.0.0.0,10.165.73.122,5,0
2016-08-09 13:09:58.200,326,6B5B5B79-A063-42A5-9845-86B7C35C751C,,,,,,,,,,,,,,,,,254994.91651175,0.1726531982421875,-0.26104736328125,-0.8311614990234375,254994.8985126667,-0.02756158675344805,0.2939099200105618,-0.4435715837897448,,,,,,,,,,,,,,,,,,,,,,,,,,,,,,,,,0.0.0.0,10.165.73.122,5,0
2016-08-09 13:09:58.215,327,6B5B5B79-A063-42A5-9845-86B7C35C751C,,,,,,,,,,,,,,,,,254994.93613375,-0.0110321044921875,-0.065826416015625,-0.8430328369140625,254994.9185316667,-0.09850713292872293,0.2296507723841489,-0.4964001777014286,,,,,,,,,,,,,,,,,,,,,,,,,,,,,,,,,0.0.0.0,10.165.73.122,5,0
2016-08-09 13:09:58.235,328,6B5B5B79-A063-42A5-9845-86B7C35C751C,,,,,,,,,,1470740998.218116,5.664627075195312,-20.98548126220703,-44.70497894287109,195.3920135498047,191.7961273193359,25,254994.95575675,0.0704193115234375,-0.0210723876953125,-0.8670654296875,254994.9385206667,-0.2224794122007835,0.1431944433880345,-0.4356566690300293,,,,,,,,,,,,,,,,,,,,,,,,,,,,,,,,,0.0.0.0,10.165.73.122,5,0
2016-08-09 13:09:58.255,329,6B5B5B79-A063-42A5-9845-86B7C35C751C,,,,,,,,,,1470740998.248003,5.887725830078125,-21.05986785888672,-44.10178375244141,196.0457916259766,192.4499053955078,25,254994.97537975,0.1427001953125,0.1955413818359375,-1.358673095703125,254994.9585406667,-0.1553373926943598,0.1983346611259071,-0.4436160585799491,,,,,,,,,,,,,,,,,,,,,,,,,,,,,,,,,0.0.0.0,10.165.73.122,5,0
2016-08-09 13:09:58.280,330,6B5B5B79-A063-42A5-9845-86B7C35C751C,,,,,,,,,,,,,,,,,254994.99497175,-0.2291412353515625,0.250091552734375,-1.02117919921875,254994.9785296667,-0.1074404404892847,0.1059565271298926,-0.4407137456239807,,,,,,,,,,,,,,,,,,,,,,,,,,,,,,,,,0.0.0.0,10.165.73.122,5,0
2016-08-09 13:09:58.294,331,6B5B5B79-A063-42A5-9845-86B7C35C751C,,,,,,,,,,,,,,,,,254995.01459475,0.0956878662109375,0.01837158203125,-1.268768310546875,254994.9985486667,0.01037727350360276,0.2222242813683539,-0.3907230161698854,,,,,,,,,,,,,,,,,,,,,,,,,,,,,,,,,0.0.0.0,10.165.73.122,5,0
2016-08-09 13:09:58.313,332,6B5B5B79-A063-42A5-9845-86B7C35C751C,,,,,,,,,,1470740998.29318,6.341262817382812,-20.68666839599609,-44.09973907470703,197.2865905761719,193.6907043457031,25,254995.03421775,0.0937042236328125,-0.132659912109375,-0.73565673828125,254995.0185376667,0.04568120217812918,0.2666018661928893,-0.4128554827250979,,,,,,,,,,,,,,,,,,,,,,,,,,,,,,,,,0.0.0.0,10.165.73.122,5,0
2016-08-09 13:09:58.333,333,6B5B5B79-A063-42A5-9845-86B7C35C751C,,,,,,,,,,1470740998.323125,6.870834350585938,-20.31510162353516,-44.62180328369141,197.850830078125,194.2549438476562,25,254995.05384075,0.08563232421875,-0.1750946044921875,-0.60797119140625,254995.0385576667,-0.00166234515242746,0.3182581365927203,-0.3474040378786565,,,,,,,,,,,,,,,,,,,,,,,,,,,,,,,,,0.0.0.0,10.165.73.122,5,0
2016-08-09 13:09:58.360,334,6B5B5B79-A063-42A5-9845-86B7C35C751C,,,,,,,,,,,,,,,,,254995.07343275,0.1361846923828125,0.0725250244140625,-0.8150482177734375,254995.0585466667,-0.0009651295790447159,0.406912106120368,-0.2985968172129923,,,,,,,,,,,,,,,,,,,,,,,,,,,,,,,,,0.0.0.0,10.165.73.122,5,0
2016-08-09 13:09:58.372,335,6B5B5B79-A063-42A5-9845-86B7C35C751C,,,,,,,,,,1470740998.368161,6.340469360351562,-20.53386688232422,-42.97605133056641,198.7756958007812,195.1798095703125,25,254995.09305575,-0.2328643798828125,-0.023834228515625,-1.302047729492188,254995.0785656667,-0.03055391455426108,0.2780960694576713,-0.3284127698291924,,,,,,,,,,,,,,,,,,,,,,,,,,,,,,,,,0.0.0.0,10.165.73.122,5,0
2016-08-09 13:09:58.392,336,6B5B5B79-A063-42A5-9845-86B7C35C751C,,,,,,,,,,,,,,,,,254995.11267875,-0.005126953125,0.06170654296875,-1.551589965820312,254995.0985546667,0.144959053926321,0.2825736421984215,-0.3041476438730444,,,,,,,,,,,,,,,,,,,,,,,,,,,,,,,,,0.0.0.0,10.165.73.122,5,0
2016-08-09 13:09:58.412,337,6B5B5B79-A063-42A5-9845-86B7C35C751C,,,,,,,,,,1470740998.398221,6.948593139648438,-19.78760528564453,-43.50038909912109,199.2440490722656,195.6481628417969,25,254995.13230075,-0.1565399169921875,-0.6412200927734375,-0.911712646484375,254995.1185746667,0.1323260829794212,0.2568874534846073,-0.3234038964509714,,,,,,,,,,,,,,,,,,,,,,,,,,,,,,,,,0.0.0.0,10.165.73.122,5,0
2016-08-09 13:09:58.442,338,6B5B5B79-A063-42A5-9845-86B7C35C751C,,,,,,,,,,,,,,,,,254995.15189375,0.2143402099609375,-0.4285125732421875,-1.009017944335938,254995.1385636667,0.1441041792164056,0.2911764514677045,-0.1900993680870551,,,,,,,,,,,,,,,,,,,,,,,,,,,,,,,,,0.0.0.0,10.165.73.122,5,0
2016-08-09 13:09:58.451,339,6B5B5B79-A063-42A5-9845-86B7C35C751C,,,,,,,,,,1470740998.443299,8.297958374023438,-19.86815643310547,-43.55919647216797,199.9545135498047,196.3586273193359,25,254995.17151575,0.0624847412109375,-0.32208251953125,-1.021041870117188,254995.1585836667,0.101634749312912,0.4152746982593258,-0.2068911313922227,,,,,,,,,,,,,,,,,,,,,,,,,,,,,,,,,0.0.0.0,10.165.73.122,5,0
2016-08-09 13:09:58.470,340,6B5B5B79-A063-42A5-9845-86B7C35C751C,,,,,,,,,,,,,,,,,254995.19113875,0.131256103515625,0.2561798095703125,-1.312728881835938,254995.1785726667,-0.1021924152451746,0.1641977296410534,-0.1465524232065154,,,,,,,,,,,,,,,,,,,,,,,,,,,,,,,,,0.0.0.0,10.165.73.122,5,0
2016-08-09 13:09:58.490,341,6B5B5B79-A063-42A5-9845-86B7C35C751C,,,,,,,,,,1470740998.473122,8.222671508789062,-19.86746978759766,-43.41005706787109,200.1851043701172,196.5892181396484,25,254995.21073175,-0.1002655029296875,-0.283905029296875,-0.978363037109375,254995.1985916667,-0.04978087236019715,0.09908397362083408,-0.177794498586453,,,,,,,,,,,,,,,,,,,,,,,,,,,,,,,,,0.0.0.0,10.165.73.122,5,0
2016-08-09 13:09:58.514,342,6B5B5B79-A063-42A5-9845-86B7C35C751C,,,,,,,,,,,,,,,,,254995.23035375,0.24005126953125,-0.2294769287109375,-0.9145660400390625,254995.2185806667,0.05162644299562207,0.3359660273128752,-0.06967308780643501,,,,,,,,,,,,,,,,,,,,,,,,,,,,,,,,,0.0.0.0,10.165.73.122,5,0
2016-08-09 13:09:58.529,343,6B5B5B79-A063-42A5-9845-86B7C35C751C,,,,,,,,,,1470740998.5181,8.975234985351562,-19.34247589111328,-42.20587921142578,200.5246429443359,196.9287567138672,25,254995.24997675,0.1353759765625,-0.01800537109375,-0.9282379150390625,254995.2385696667,-0.1115651443855994,0.2259039710465164,-0.03274223402197919,,,,,,,,,,,,,,,,,,,,,,,,,,,,,,,,,0.0.0.0,10.165.73.122,5,0
2016-08-09 13:09:58.549,344,6B5B5B79-A063-42A5-9845-86B7C35C751C,,,,,,,,,,1470740998.54807,8.376846313476562,-19.19028472900391,-42.28905487060547,200.5640563964844,196.9681701660156,25,254995.26959975,0.12799072265625,0.0490264892578125,-1.094436645507812,254995.2585896667,-0.1789628273566708,0.009678726349674975,0.009776464361680883,,,,,,,,,,,,,,,,,,,,,,,,,,,,,,,,,0.0.0.0,10.165.73.122,5,0
2016-08-09 13:09:58.568,345,6B5B5B79-A063-42A5-9845-86B7C35C751C,,,,,,,,,,,,,,,,,254995.28919175,-0.0444488525390625,-0.052764892578125,-1.071792602539062,254995.2785786667,-0.1042318640079573,0.07844021411497587,-0.01626392477711391,,,,,,,,,,,,,,,,,,,,,,,,,,,,,,,,,0.0.0.0,10.165.73.122,5,0
2016-08-09 13:09:58.593,346,6B5B5B79-A063-42A5-9845-86B7C35C751C,,,,,,,,,,,,,,,,,254995.30881475,0.160797119140625,0.006500244140625,-0.7090911865234375,254995.2985976667,-0.108794391587481,0.0278758397620774,0.02434129236332424,,,,,,,,,,,,,,,,,,,,,,,,,,,,,,,,,0.0.0.0,10.165.73.122,5,0
2016-08-09 13:09:58.608,347,6B5B5B79-A063-42A5-9845-86B7C35C751C,,,,,,,,,,1470740998.593244,9.051300048828125,-19.42002105712891,-43.10433197021484,200.5690460205078,196.9731597900391,25,254995.32843775,0.100799560546875,0.0612335205078125,-0.9314727783203125,,,,,,,,,,,,,,,,,,,,,,,,,,,,,,,,,,,,,0.0.0.0,10.165.73.122,5,0
2016-08-09 13:09:58.627,348,6B5B5B79-A063-42A5-9845-86B7C35C751C,,,,,,,,,,1470740998.623167,8.971282958984375,-19.86876678466797,-42.72643280029297,200.5220947265625,196.9262084960938,25,254995.34806075,0.1551971435546875,-0.171661376953125,-0.899993896484375,254995.3386066667,-0.1078335230661804,0.03757640403269102,0.03818520265788314,,,,,,,,,,,,,,,,,,,,,,,,,,,,,,,,,0.0.0.0,10.165.73.122,5,0
2016-08-09 13:09:58.647,349,6B5B5B79-A063-42A5-9845-86B7C35C751C,,,,,,,,,,,,,,,,,254995.36765275,0.128936767578125,-0.0362701416015625,-0.7206268310546875,254995.3585956667,-0.1089461917696155,0.006841927156522571,0.04465508621012164,,,,,,,,,,,,,,,,,,,,,,,,,,,,,,,,,0.0.0.0,10.165.73.122,5,0
2016-08-09 13:09:58.679,350,6B5B5B79-A063-42A5-9845-86B7C35C751C,,,,,,,,,,1470740998.668313,8.672439575195312,-19.71720123291016,-42.58116912841797,200.4159240722656,196.8200378417969,25,254995.38727575,0.214599609375,0.035980224609375,-0.9521026611328125,,,,,,,,,,,,,,,,,,,,,,,,,,,,,,,,,,,,,0.0.0.0,10.165.73.122,5,0
2016-08-09 13:09:58.686,351,6B5B5B79-A063-42A5-9845-86B7C35C751C,,,,,,,,,,,,,,,,,254995.40689875,0.1835784912109375,0.0563507080078125,-0.98028564453125,254995.3986036667,-0.02074922068502536,-0.0003523362122174832,0.06907946919945636,,,,,,,,,,,,,,,,,,,,,,,,,,,,,,,,,0.0.0.0,10.165.73.122,5,0
2016-08-09 13:09:58.706,352,6B5B5B79-A063-42A5-9845-86B7C35C751C,,,,,,,,,,1470740998.698124,9.1256103515625,-19.57125091552734,-43.47719573974609,200.3244171142578,196.7285308837891,25,254995.42652075,0.1307373046875,-0.2371826171875,-0.9235382080078125,254995.4186236667,0.02831632660637651,0.01545858486347395,0.05783560307714181,,,,,,,,,,,,,,,,,,,,,,,,,,,,,,,,,0.0.0.0,10.165.73.122,5,0
2016-08-09 13:09:58.725,353,6B5B5B79-A063-42A5-9845-86B7C35C751C,,,,,,,,,,,,,,,,,254995.44611375,0.0987396240234375,-0.0708160400390625,-0.9599761962890625,,,,,,,,,,,,,,,,,,,,,,,,,,,,,,,,,,,,,0.0.0.0,10.165.73.122,5,0
2016-08-09 13:09:58.762,354,6B5B5B79-A063-42A5-9845-86B7C35C751C,,,,,,,,,,1470740998.743268,8.977828979492188,-19.11804962158203,-42.43274688720703,200.1200103759766,196.5241241455078,25,254995.46573575,-0.0776824951171875,0.2061614990234375,-1.505966186523438,254995.4586316667,-0.02051752567018847,-0.06864137920013831,0.03835111759379508,,,,,,,,,,,,,,,,,,,,,,,,,,,,,,,,,0.0.0.0,10.165.73.122,5,0
2016-08-09 13:09:58.765,355,6B5B5B79-A063-42A5-9845-86B7C35C751C,,,,,,,,,,,,,,,,,254995.48535875,0.144378662109375,0.4239501953125,-1.261199951171875,254995.4786206667,0.1985455834842414,0.01138501366008874,0.07673658996565218,,,,,,,,,,,,,,,,,,,,,,,,,,,,,,,,,0.0.0.0,10.165.73.122,5,0
2016-08-09 13:09:58.784,356,6B5B5B79-A063-42A5-9845-86B7C35C751C,,,,,,,,,,1470740998.773141,7.923721313476562,-19.48810577392578,-42.14173126220703,200.0237274169922,196.4278411865234,25,254995.50498175,-0.0291748046875,-0.316864013671875,-1.309066772460938,,,,,,,,,,,,,,,,,,,,,,,,,,,,,,,,,,,,,0.0.0.0,10.165.73.122,5,0
