loggingTime,loggingSample,identifierForVendor,locationTimestamp_since1970,locationLatitude,locationLongitude,locationAltitude,locationSpeed,locationCourse,locationVerticalAccuracy,locationHorizontalAccuracy,locationFloor,locationHeadingTimestamp_since1970,locationHeadingX,locationHeadingY,locationHeadingZ,locationTrueHeading,locationMagneticHeading,locationHeadingAccuracy,accelerometerTimestamp_sinceReboot,accelerometerAccelerationX,accelerometerAccelerationY,accelerometerAccelerationZ,gyroTimestamp_sinceReboot,gyroRotationX,gyroRotationY,gyroRotationZ,motionTimestamp_sinceReboot,motionYaw,motionRoll,motionPitch,motionRotationRateX,motionRotationRateY,motionRotationRateZ,motionUserAccelerationX,motionUserAccelerationY,motionUserAccelerationZ,motionAttitudeReferenceFrame,motionQuaternionX,motionQuaternionY,motionQuaternionZ,motionQuaternionW,motionGravityX,motionGravityY,motionGravityZ,motionMagneticFieldX,motionMagneticFieldY,motionMagneticFieldZ,motionMagneticFieldCalibrationAccuracy,activityTimestamp_sinceReboot,activity,activityActivityConfidence,activityActivityStartDate,pedometerStartDate,pedometerNumberofSteps,pedometerDistance,pedometerFloorAscended,pedometerFloorDescended,pedometerEndDate,IP_en0,IP_pdp_ip0,deviceOrientation,state
2016-09-12 12:11:14.099,1,6B5B5B79-A063-42A5-9845-86B7C35C751C,1473675074.000049,51.03065150794669,13.72839373537686,142.1739,0,-1,96,100,-9999,1473675074.073703,-17.00131225585938,-48.19184112548828,-8.359268188476562,104.5325088500977,100.9117126464844,89,262922.63453575,-0.01922607421875,-0.988311767578125,-0.0644378662109375,262922.617562625,-0.01836409361275039,-0.05805344965431029,0.03514653585410273,,,,,,,,,,,,,,,,,,,,,,,262921.9966707917,stationary,1,2016-09-12 12:11:13.443,,,,,,,0.0.0.0,10.56.9.191,1,0
2016-09-12 12:11:14.110,2,6B5B5B79-A063-42A5-9845-86B7C35C751C,,,,,,,,,,1473675074.103577,-17.90028381347656,-47.96178436279297,-7.771560668945312,104.5415191650391,100.9207229614258,89,262922.65412775,-0.017059326171875,-0.99969482421875,-0.09710693359375,262922.637551625,-0.07878216399894204,0.04565803267664548,-0.00203944876278268,,,,,,,,,,,,,,,,,,,,,,,,,,,,,,,,,0.0.0.0,10.56.9.191,1,0
2016-09-12 12:11:14.129,3,6B5B5B79-A063-42A5-9845-86B7C35C751C,,,,,,,,,,,,,,,,,262922.67371975,-0.0121002197265625,-1.014984130859375,-0.100006103515625,262922.657571625,0.006524212038476118,0.1060212419443815,-0.0183473156978829,,,,,,,,,,,,,,,,,,,,,,,,,,,,,,,,,0.0.0.0,10.56.9.191,1,0
2016-09-12 12:11:14.149,4,6B5B5B79-A063-42A5-9845-86B7C35C751C,,,,,,,,,,,,,,,,,262922.69334275,-0.0033721923828125,-1.003067016601562,-0.0733795166015625,262922.677560625,0.06703016674064038,0.05316894589899596,0.006971356785500422,,,,,,,,,,,,,,,,,,,,,,,,,,,,,,,,,0.0.0.0,10.56.9.191,1,0
2016-09-12 12:11:14.169,5,6B5B5B79-A063-42A5-9845-86B7C35C751C,,,,,,,,,,1473675074.14863,-16.9237060546875,-47.96772003173828,-8.585281372070312,104.3636779785156,100.7428817749023,89,262922.71293475,-0.00634765625,-0.9994964599609375,-0.065704345703125,262922.697579625,0.03813060785553651,0.009831591796245523,0.02703747665092046,,,,,,,,,,,,,,,,,,,,,,,,,,,,,,,,,0.0.0.0,10.56.9.191,1,0
2016-09-12 12:11:14.188,6,6B5B5B79-A063-42A5-9845-86B7C35C751C,,,,,,,,,,1473675074.178627,-16.77363586425781,-47.81662750244141,-7.90985107421875,104.3168411254883,100.696044921875,89,262922.73252775,-0.0053558349609375,-0.9891815185546875,-0.0573883056640625,262922.717568625,-0.005579322483716004,-0.02301610340490081,0.03412121883442222,,,,,,,,,,,,,,,,,,,,,,,,,,,,,,,,,0.0.0.0,10.56.9.191,1,0
2016-09-12 12:11:14.208,7,6B5B5B79-A063-42A5-9845-86B7C35C751C,,,,,,,,,,,,,,,,,262922.75215075,-0.0115509033203125,-0.9903564453125,-0.0588226318359375,262922.737588625,-0.0181963144640754,-0.0147379334724985,0.01263909621740706,,,,,,,,,,,,,,,,,,,,,,,,,,,,,,,,,0.0.0.0,10.56.9.191,1,0
2016-09-12 12:11:14.227,8,6B5B5B79-A063-42A5-9845-86B7C35C751C,,,,,,,,,,1473675074.223679,-17.45013427734375,-48.03969573974609,-8.215728759765625,104.3200607299805,100.6992645263672,89,262922.77174275,-0.01873779296875,-0.995147705078125,-0.0741119384765625,262922.757577625,-0.03091716972694789,-0.02012470940940178,0.00505388080064337,,,,,,,,,,,,,,,,,,,,,,,,,,,,,,,,,0.0.0.0,10.56.9.191,1,0
2016-09-12 12:11:14.248,9,6B5B5B79-A063-42A5-9845-86B7C35C751C,,,,,,,,,,,,,,,,,262922.79133475,-0.008697509765625,-1.003402709960938,-0.1074371337890625,262922.777596625,-0.02448883148771463,0.006372411856341601,-0.0002809634950033596,,,,,,,,,,,,,,,,,,,,,,,,,,,,,,,,,0.0.0.0,10.56.9.191,1,0
2016-09-12 12:11:14.267,10,6B5B5B79-A063-42A5-9845-86B7C35C751C,,,,,,,,,,1473675074.253572,-16.99690246582031,-47.66611480712891,-8.063690185546875,104.3289413452148,100.7081451416016,89,262922.81095775,-0.0174102783203125,-1.005401611328125,-0.0991973876953125,262922.797616625,0.02447285252117415,0.06587009376980187,0.002213885814182871,,,,,,,,,,,,,,,,,,,,,,,,,,,,,,,,,0.0.0.0,10.56.9.191,1,0
2016-09-12 12:11:14.287,11,6B5B5B79-A063-42A5-9845-86B7C35C751C,,,,,,,,,,,,,,,,,262922.83054975,-0.004486083984375,-0.997711181640625,-0.0761871337890625,262922.817605625,0.08400195973549734,0.06812525858088096,0.01564207666258041,,,,,,,,,,,,,,,,,,,,,,,,,,,,,,,,,0.0.0.0,10.56.9.191,1,0
2016-09-12 12:11:14.306,12,6B5B5B79-A063-42A5-9845-86B7C35C751C,,,,,,,,,,1473675074.298754,-17.82598876953125,-48.03707122802734,-7.770065307617188,104.1500473022461,100.5292510986328,89,262922.85017275,-0.006103515625,-0.9970245361328125,-0.072723388671875,262922.837624625,0.04562367789858346,0.0405769876328833,0.02170236603916472,,,,,,,,,,,,,,,,,,,,,,,,,,,,,,,,,0.0.0.0,10.56.9.191,1,0
2016-09-12 12:11:14.328,13,6B5B5B79-A063-42A5-9845-86B7C35C751C,,,,,,,,,,,,,,,,,262922.86976475,-0.01666259765625,-0.9914703369140625,-0.05816650390625,262922.857613625,0.03820251320496865,-0.003011502560661603,0.01747805991808103,,,,,,,,,,,,,,,,,,,,,,,,,,,,,,,,,0.0.0.0,10.56.9.191,1,0
2016-09-12 12:11:14.345,14,6B5B5B79-A063-42A5-9845-86B7C35C751C,,,,,,,,,,1473675074.32863,-17.44615173339844,-47.58934783935547,-8.069503784179688,104.0936660766602,100.4728698730469,89,262922.88935775,-0.016082763671875,-0.990447998046875,-0.055572509765625,262922.877633625,0.02869183232007768,0.02450401150592808,0.007704258717490228,,,,,,,,,,,,,,,,,,,,,,,,,,,,,,,,,0.0.0.0,10.56.9.191,1,0
2016-09-12 12:11:14.365,15,6B5B5B79-A063-42A5-9845-86B7C35C751C,,,,,,,,,,,,,,,,,262922.90897975,-0.0211944580078125,-0.99285888671875,-0.062042236328125,262922.897622625,0.01914919350210575,0.03507010313081746,0.002241582689519695,,,,,,,,,,,,,,,,,,,,,,,,,,,,,,,,,0.0.0.0,10.56.9.191,1,0
2016-09-12 12:11:14.385,16,6B5B5B79-A063-42A5-9845-86B7C35C751C,,,,,,,,,,1473675074.37379,-17.15101623535156,-48.11568450927734,-8.136642456054688,104.0135879516602,100.3927917480469,89,262922.92857275,-0.021484375,-0.9951934814453125,-0.0595703125,262922.917641625,0.05634290128615239,0.06278215848585499,0.01216079248562883,,,,,,,,,,,,,,,,,,,,,,,,,,,,,,,,,0.0.0.0,10.56.9.191,1,0
2016-09-12 12:11:14.411,17,6B5B5B79-A063-42A5-9845-86B7C35C751C,,,,,,,,,,1473675074.40492,-17.75216674804688,-48.11179351806641,-7.543594360351562,103.9116897583008,100.2908935546875,89,262922.94816475,-0.0132293701171875,-0.9911346435546875,-0.061981201171875,262922.937630625,0.05624702748690955,0.08627869615140608,0.02488910459955354,,,,,,,,,,,,,,,,,,,,,,,262922.9300207917,unknown,1,2016-09-12 12:11:14.384,,,,,,,0.0.0.0,10.56.9.191,1,0
2016-09-12 12:11:14.424,18,6B5B5B79-A063-42A5-9845-86B7C35C751C,,,,,,,,,,,,,,,,,262922.96778775,-0.0128173828125,-0.9807281494140625,-0.0525970458984375,262922.957650625,0.05092336846784114,0.07140973515327569,0.02487285931690405,,,,,,,,,,,,,,,,,,,,,,,,,,,,,,,,,0.0.0.0,10.56.9.191,1,0
2016-09-12 12:11:14.443,19,6B5B5B79-A063-42A5-9845-86B7C35C751C,,,,,,,,,,,,,,,,,262922.98737975,-0.003173828125,-0.9877471923828125,-0.0528411865234375,262922.977639625,0.03729757106655973,0.05199768765157911,-0.004006992176133222,,,,,,,,,,,,,,,,,,,,,,,,,,,,,,,,,0.0.0.0,10.56.9.191,1,0
2016-09-12 12:11:14.463,20,6B5B5B79-A063-42A5-9845-86B7C35C751C,,,,,,,,,,1473675074.44862,-16.77708435058594,-48.11585235595703,-7.607345581054688,103.6842498779297,100.0634536743164,89,262923.00697175,-0.002288818359375,-0.9973297119140625,-0.0578460693359375,,,,,,,,,,,,,,,,,,,,,,,,,,,,,,,,,,,,,0.0.0.0,10.56.9.191,1,0
2016-09-12 12:11:14.490,21,6B5B5B79-A063-42A5-9845-86B7C35C751C,,,,,,,,,,,,,,,,,262923.02659475,-0.02947998046875,-1.003143310546875,-0.0602874755859375,262923.017678625,-0.004956142788637462,0.03242185574284266,-0.04918698743710948,,,,,,,,,,,,,,,,,,,,,,,,,,,,,,,,,0.0.0.0,10.56.9.191,1,0
2016-09-12 12:11:14.502,22,6B5B5B79-A063-42A5-9845-86B7C35C751C,,,,,,,,,,1473675074.49016,-16.7740478515625,-47.89200592041016,-8.0592041015625,103.6890869140625,100.0682907104492,89,262923.04618675,-0.0077972412109375,-1.006439208984375,-0.067169189453125,262923.037667625,0.03303864385130501,0.05624596222247351,-0.004064516455678934,,,,,,,,,,,,,,,,,,,,,,,,,,,,,,,,,0.0.0.0,10.56.9.191,1,0
2016-09-12 12:11:14.521,23,6B5B5B79-A063-42A5-9845-86B7C35C751C,,,,,,,,,,,,,,,,,262923.06577975,-0.0141754150390625,-1.004058837890625,-0.069122314453125,,,,,,,,,,,,,,,,,,,,,,,,,,,,,,,,,,,,,0.0.0.0,10.56.9.191,1,0
2016-09-12 12:11:14.541,24,6B5B5B79-A063-42A5-9845-86B7C35C751C,,,,,,,,,,1473675074.523778,-17.97772216796875,-48.18608856201172,-7.62054443359375,103.625373840332,100.0045776367188,89,262923.08540275,0.00274658203125,-0.99212646484375,-0.057342529296875,262923.077676625,-0.002249305856680925,0.009722402191552276,0.01594168228521432,,,,,,,,,,,,,,,,,,,,,,,,,,,,,,,,,0.0.0.0,10.56.9.191,1,0
2016-09-12 12:11:14.570,25,6B5B5B79-A063-42A5-9845-86B7C35C751C,,,,,,,,,,1473675074.55362,-16.92289733886719,-47.74103546142578,-7.912200927734375,103.5845565795898,99.96376037597656,89,262923.10499475,-0.001922607421875,-0.9850616455078125,-0.0507965087890625,262923.097695625,0.002081526708005933,-0.03816895737523366,0.006524744670694134,,,,,,,,,,,,,,,,,,,,,,,,,,,,,,,,,0.0.0.0,10.56.9.191,1,0
2016-09-12 12:11:14.580,26,6B5B5B79-A063-42A5-9845-86B7C35C751C,,,,,,,,,,,,,,,,,262923.12458675,-0.010986328125,-0.99139404296875,-0.0538482666015625,,,,,,,,,,,,,,,,,,,,,,,,,,,,,,,,,,,,,0.0.0.0,10.56.9.191,1,0
2016-09-12 12:11:14.600,27,6B5B5B79-A063-42A5-9845-86B7C35C751C,,,,,,,,,,1473675074.598715,-17.300048828125,-47.88860321044922,-7.540283203125,103.6900482177734,100.0692520141602,89,262923.14420975,-0.0196685791015625,-1.004867553710938,-0.073089599609375,262923.137704625,-0.05741562257323631,-0.001171258247416849,-0.0112760903715045,,,,,,,,,,,,,,,,,,,,,,,,,,,,,,,,,0.0.0.0,10.56.9.191,1,0
2016-09-12 12:11:14.619,28,6B5B5B79-A063-42A5-9845-86B7C35C751C,,,,,,,,,,,,,,,,,262923.16380175,-0.017608642578125,-1.0074462890625,-0.06610107421875,262923.157693625,-0.03093314869348837,0.009635050507797676,0.007103982207786368,,,,,,,,,,,,,,,,,,,,,,,,,,,,,,,,,0.0.0.0,10.56.9.191,1,0
2016-09-12 12:11:14.649,29,6B5B5B79-A063-42A5-9845-86B7C35C751C,,,,,,,,,,1473675074.628584,-17.67814636230469,-48.26265716552734,-7.766448974609375,103.6864318847656,100.0656356811523,89,262923.18339375,-0.0083160400390625,-0.99798583984375,-0.061981201171875,,,,,,,,,,,,,,,,,,,,,,,,,,,,,,,,,,,,,0.0.0.0,10.56.9.191,1,0
2016-09-12 12:11:14.659,30,6B5B5B79-A063-42A5-9845-86B7C35C751C,,,,,,,,,,1473675074.649527,-16.84989929199219,-47.96651458740234,-7.98443603515625,103.6362533569336,100.0154571533203,89,262923.20298675,-0.0056915283203125,-0.99285888671875,-0.0671844482421875,262923.197701625,-0.006452306689043979,0.0160183813246086,0.008415855360759401,,,,,,,,,,,,,,,,,,,,,,,,,,,,,,,,,0.0.0.0,10.56.9.191,1,0
2016-09-12 12:11:14.678,31,6B5B5B79-A063-42A5-9845-86B7C35C751C,,,,,,,,,,1473675074.673788,-17.37472534179688,-47.96462249755859,-8.065505981445312,103.6132202148438,99.99242401123047,89,262923.22260975,-0.0077667236328125,-0.99322509765625,-0.0709686279296875,262923.217721625,-3.994741635118857e-05,-0.01693850348123098,0.00537718855697899,,,,,,,,,,,,,,,,,,,,,,,,,,,,,,,,,0.0.0.0,10.56.9.191,1,0
2016-09-12 12:11:14.698,32,6B5B5B79-A063-42A5-9845-86B7C35C751C,,,,,,,,,,,,,,,,,262923.24220175,-0.017303466796875,-0.995147705078125,-0.061614990234375,,,,,,,,,,,,,,,,,,,,,,,,,,,,,,,,,,,,,0.0.0.0,10.56.9.191,1,0
2016-09-12 12:11:14.730,33,6B5B5B79-A063-42A5-9845-86B7C35C751C,,,,,,,,,,1473675074.703766,-17.2255859375,-48.04001617431641,-7.988128662109375,103.6439590454102,100.0231628417969,89,262923.26179375,-0.0208282470703125,-1.001495361328125,-0.05804443359375,262923.237740625,-0.02873976921969911,-0.02762470367128293,-0.001299089979740652,,,,,,,,,,,,,,,,,,,,,,,,,,,,,,,,,0.0.0.0,10.56.9.191,1,0
2016-09-12 12:11:14.737,34,6B5B5B79-A063-42A5-9845-86B7C35C751C,,,,,,,,,,1473675074.73055,-17.90185546875,-48.11157989501953,-7.6953125,103.6775970458984,100.0568008422852,89,262923.28138575,-0.0205535888671875,-0.9932861328125,-0.053070068359375,262923.277749625,-0.03942703467418709,-0.0105770105853587,0.003869839379994141,,,,,,,,,,,,,,,,,,,,,,,,,,,,,,,,,0.0.0.0,10.56.9.191,1,0
2016-09-12 12:11:14.757,35,6B5B5B79-A063-42A5-9845-86B7C35C751C,,,,,,,,,,,,,,,,,262923.30097875,-0.0228424072265625,-0.9959564208984375,-0.0535888671875,,,,,,,,,,,,,,,,,,,,,,,,,,,,,,,,,,,,,0.0.0.0,10.56.9.191,1,0
2016-09-12 12:11:14.776,36,6B5B5B79-A063-42A5-9845-86B7C35C751C,,,,,,,,,,,,,,,,,262923.32060175,-0.016632080078125,-1.00238037109375,-0.0668792724609375,262923.297738625,-0.01379357654995641,0.006306898093525652,-0.006562827874282267,,,,,,,,,,,,,,,,,,,,,,,,,,,,,,,,,0.0.0.0,10.56.9.191,1,0
2016-09-12 12:11:14.796,37,6B5B5B79-A063-42A5-9845-86B7C35C751C,,,,,,,,,,1473675074.778699,-16.77821350097656,-48.26622772216797,-7.756072998046875,103.6855773925781,100.0647811889648,89,262923.34019375,-0.02056884765625,-1.003265380859375,-0.0639190673828125,262923.337746625,0.002241316373410687,-0.00652527730291215,-0.01488440733245286,,,,,,,,,,,,,,,,,,,,,,,,,,,,,,,,,0.0.0.0,10.56.9.191,1,0
2016-09-12 12:11:14.816,38,6B5B5B79-A063-42A5-9845-86B7C35C751C,,,,,,,,,,,,,,,,,262923.35978575,-0.027191162109375,-1.002029418945312,-0.064453125,,,,,,,,,,,,,,,,,,,,,,,,,,,,,,,,,,,,,0.0.0.0,10.56.9.191,1,0
2016-09-12 12:11:14.835,39,6B5B5B79-A063-42A5-9845-86B7C35C751C,,,,,,,,,,1473675074.823823,-17.89698791503906,-47.66236114501953,-7.999069213867188,103.7125625610352,100.0917663574219,89,262923.37937775,-0.03155517578125,-1.01666259765625,-0.0691986083984375,262923.357766625,-0.0308133064444348,0.004160922887139802,-0.008872321171598982,,,,,,,,,,,,,,,,,,,,,,,,,,,,,,,,,0.0.0.0,10.56.9.191,1,0
2016-09-12 12:11:14.855,40,6B5B5B79-A063-42A5-9845-86B7C35C751C,,,,,,,,,,1473675074.853739,-16.47706604003906,-48.19298553466797,-7.978225708007812,103.7053985595703,100.084602355957,89,262923.39900075,-0.0347747802734375,-1.02386474609375,-0.0752716064453125,262923.397774625,-0.004003263750607111,-0.0141562990904252,-0.03412175146664024,,,,,,,,,,,,,,,,,,,,,,,,,,,,,,,,,0.0.0.0,10.56.9.191,1,0
2016-09-12 12:11:14.874,41,6B5B5B79-A063-42A5-9845-86B7C35C751C,,,,,,,,,,,,,,,,,262923.41859275,-0.0392913818359375,-1.0240478515625,-0.0632171630859375,,,,,,,,,,,,,,,,,,,,,,,,,,,,,,,,,,,,,0.0.0.0,10.56.9.191,1,0
2016-09-12 12:11:14.894,42,6B5B5B79-A063-42A5-9845-86B7C35C751C,,,,,,,,,,,,,,,,,262923.43818575,-0.0400390625,-1.017059326171875,-0.0667877197265625,262923.417763625,0.01320821374235699,-0.0005896238653435433,-0.05743000364312274,,,,,,,,,,,,,,,,,,,,,,,,,,,,,,,,,0.0.0.0,10.56.9.191,1,0
2016-09-12 12:11:14.914,43,6B5B5B79-A063-42A5-9845-86B7C35C751C,,,,,,,,,,1473675074.898851,-16.85377502441406,-48.34111785888672,-7.831298828125,103.8733749389648,100.2525787353516,89,262923.45777775,-0.0367431640625,-1.024826049804688,-0.085113525390625,262923.437783625,0.01764290958955694,0.00235636493250211,-0.08084638015986245,,,,,,,,,,,,,,,,,,,,,,,,,,,,,,,,,0.0.0.0,10.56.9.191,1,0
2016-09-12 12:11:14.933,44,6B5B5B79-A063-42A5-9845-86B7C35C751C,,,,,,,,,,1473675074.928677,-17.37933349609375,-48.33827972412109,-7.537368774414062,103.9977493286133,100.376953125,89,262923.47740075,-0.04132080078125,-1.020797729492188,-0.085540771484375,262923.457803625,0.02102086311621344,0.01272591526894364,-0.1053607779940419,,,,,,,,,,,,,,,,,,,,,,,,,,,,,,,,,0.0.0.0,10.56.9.191,1,0
2016-09-12 12:11:14.953,45,6B5B5B79-A063-42A5-9845-86B7C35C751C,,,,,,,,,,,,,,,,,262923.49699275,-0.041748046875,-1.017868041992188,-0.080535888671875,262923.477792625,0.008339955269692143,-0.02988785796563227,-0.1181737786306311,,,,,,,,,,,,,,,,,,,,,,,,,,,,,,,,,0.0.0.0,10.56.9.191,1,0
2016-09-12 12:11:14.973,46,6B5B5B79-A063-42A5-9845-86B7C35C751C,,,,,,,,,,,,,,,,,262923.51658475,-0.0423431396484375,-1.020797729492188,-0.0887298583984375,262923.497811625,0.04154637826967215,-0.02697462604919459,-0.1444791522978887,,,,,,,,,,,,,,,,,,,,,,,,,,,,,,,,,0.0.0.0,10.56.9.191,1,0
2016-09-12 12:11:14.992,47,6B5B5B79-A063-42A5-9845-86B7C35C751C,,,,,,,,,,1473675074.973853,-16.55308532714844,-48.26731109619141,-7.828475952148438,104.4319534301758,100.8111572265625,89,262923.53620775,-0.043365478515625,-1.016021728515625,-0.0862884521484375,262923.517800625,0.01083693510775044,-0.001714276793684006,-0.1672688870101328,,,,,,,,,,,,,,,,,,,,,,,,,,,,,,,,,0.0.0.0,10.56.9.191,1,0
2016-09-12 12:11:15.011,48,6B5B5B79-A063-42A5-9845-86B7C35C751C,,,,,,,,,,1473675075.00385,-16.32865905761719,-48.34339141845703,-7.900253295898438,104.6831436157227,101.0623474121094,89,262923.55579975,-0.0411224365234375,-1.005355834960938,-0.08270263671875,262923.537820625,0.0344128349737859,0.008698949384634823,-0.1873014510458179,,,,,,,,,,,,,,,,,,,,,,,,,,,,,,,,,0.0.0.0,10.56.9.191,1,0
2016-09-12 12:11:15.031,49,6B5B5B79-A063-42A5-9845-86B7C35C751C,,,,,,,,,,,,,,,,,262923.57539275,-0.0425872802734375,-0.9971771240234375,-0.07049560546875,262923.557809625,0.07094927460080099,-0.004504470667760023,-0.2316516053111254,,,,,,,,,,,,,,,,,,,,,,,262923.5572487917,stationary,1,2016-09-12 12:11:15.011,,,,,,,0.0.0.0,10.56.9.191,1,0
2016-09-12 12:11:15.052,50,6B5B5B79-A063-42A5-9845-86B7C35C751C,,,,,,,,,,1473675075.048926,-16.55682373046875,-48.56615447998047,-7.3759765625,105.3000869750977,101.6792907714844,89,262923.59498475,-0.0431365966796875,-1.008331298828125,-0.05682373046875,262923.577828625,0.05958077253947074,-0.0294015647505838,-0.2775509203825321,,,,,,,,,,,,,,,,,,,,,,,,,,,,,,,,,0.0.0.0,10.56.9.191,1,0
2016-09-12 12:11:15.070,51,6B5B5B79-A063-42A5-9845-86B7C35C751C,1473675075.000048,51.03065737527891,13.72817681172278,136.4188,0,-1,3,100,-9999,,,,,,,,262923.61457675,-0.0424346923828125,-1.001983642578125,-0.053375244140625,262923.597817625,0.04925303383214345,-0.02983832316935679,-0.3203079716837542,,,,,,,,,,,,,,,,,,,,,,,,,,,,,,,,,0.0.0.0,10.56.9.191,1,0
2016-09-12 12:11:15.090,52,6B5B5B79-A063-42A5-9845-86B7C35C751C,,,,,,,,,,1473675075.078741,-15.13520812988281,-48.87123870849609,-7.132034301757812,105.8012771606445,102.1804809570312,89,262923.63419975,-0.0391387939453125,-0.9954071044921875,-0.05438232421875,262923.617837625,0.05582518277024099,-0.03008945926015126,-0.3447587199678808,,,,,,,,,,,,,,,,,,,,,,,,,,,,,,,,,0.0.0.0,10.56.9.191,1,0
2016-09-12 12:11:15.109,53,6B5B5B79-A063-42A5-9845-86B7C35C751C,,,,,,,,,,,,,,,,,262923.65379175,-0.0250091552734375,-0.99835205078125,-0.0597381591796875,262923.637856625,0.07944103005262765,-0.01654462195600826,-0.3701303893569566,,,,,,,,,,,,,,,,,,,,,,,,,,,,,,,,,0.0.0.0,10.56.9.191,1,0
2016-09-12 12:11:15.130,54,6B5B5B79-A063-42A5-9845-86B7C35C751C,,,,,,,,,,1473675075.123882,-15.36404418945312,-49.24494171142578,-6.981491088867188,106.9228591918945,103.3020629882812,89,262923.67338475,-0.0127410888671875,-1.000396728515625,-0.054412841796875,262923.657845625,0.05845798382389333,-0.004225637701628727,-0.4119710469270825,,,,,,,,,,,,,,,,,,,,,,,,,,,,,,,,,0.0.0.0,10.56.9.191,1,0
2016-09-12 12:11:15.149,55,6B5B5B79-A063-42A5-9845-86B7C35C751C,,,,,,,,,,,,,,,,,262923.69297675,-0.011474609375,-1.001113891601562,-0.0631866455078125,262923.677865625,0.03328791572933643,-0.008998022375050723,-0.4634052096920009,,,,,,,,,,,,,,,,,,,,,,,,,,,,,,,,,0.0.0.0,10.56.9.191,1,0
2016-09-12 12:11:15.168,56,6B5B5B79-A063-42A5-9845-86B7C35C751C,,,,,,,,,,1473675075.154236,-13.86697387695312,-49.62680816650391,-7.336029052734375,107.5798110961914,103.9590148925781,89,262923.71256875,-0.002960205078125,-0.9973907470703125,-0.053619384765625,262923.697854625,0.02719513578745315,-0.04020201455140015,-0.502833309630624,,,,,,,,,,,,,,,,,,,,,,,,,,,,,,,,,0.0.0.0,10.56.9.191,1,0
2016-09-12 12:11:15.188,57,6B5B5B79-A063-42A5-9845-86B7C35C751C,,,,,,,,,,,,,,,,,262923.73219175,0.0137481689453125,-0.993316650390625,-0.053558349609375,262923.717873625,0.05300436254362906,-0.01931004843194654,-0.5367310892495886,,,,,,,,,,,,,,,,,,,,,,,,,,,,,,,,,0.0.0.0,10.56.9.191,1,0
2016-09-12 12:11:15.211,58,6B5B5B79-A063-42A5-9845-86B7C35C751C,,,,,,,,,,,,,,,,,262923.75178375,0.01861572265625,-0.9970703125,-0.0531158447265625,262923.737862625,0.05642226348663676,-0.03660887760866524,-0.5664996375983853,,,,,,,,,,,,,,,,,,,,,,,,,,,,,,,,,0.0.0.0,10.56.9.191,1,0
2016-09-12 12:11:15.227,59,6B5B5B79-A063-42A5-9845-86B7C35C751C,,,,,,,,,,1473675075.198835,-12.74763488769531,-50.15550994873047,-7.018661499023438,109.174430847168,105.5536346435547,89,262923.77137675,0.0319976806640625,-0.9891357421875,-0.0517730712890625,262923.757882625,0.05150606811435048,-0.05309677423345481,-0.6208821860061304,,,,,,,,,,,,,,,,,,,,,,,,,,,,,,,,,0.0.0.0,10.56.9.191,1,0
2016-09-12 12:11:15.247,60,6B5B5B79-A063-42A5-9845-86B7C35C751C,,,,,,,,,,1473675075.22873,-12.15109252929688,-50.53304290771484,-7.083587646484375,110.0959396362305,106.4751434326172,89,262923.79096875,0.0440521240234375,-0.9810943603515625,-0.055450439453125,262923.777871625,0.037071202373903,-0.05692719882931578,-0.6839314595493203,,,,,,,,,,,,,,,,,,,,,,,,,,,,,,,,,0.0.0.0,10.56.9.191,1,0
2016-09-12 12:11:15.266,61,6B5B5B79-A063-42A5-9845-86B7C35C751C,,,,,,,,,,,,,,,,,262923.81059175,0.05621337890625,-0.9684600830078125,-0.047637939453125,262923.797890625,0.04073677729828806,-0.04057831921342835,-0.7468417160836082,,,,,,,,,,,,,,,,,,,,,,,,,,,,,,,,,0.0.0.0,10.56.9.191,1,0
2016-09-12 12:11:15.290,62,6B5B5B79-A063-42A5-9845-86B7C35C751C,,,,,,,,,,1473675075.273838,-10.27633666992188,-50.61624908447266,-7.361312866210938,112.2784805297852,108.6576843261719,89,262923.83018375,0.059051513671875,-0.981292724609375,-0.0572052001953125,262923.817879625,0.02309173717985906,-0.01252484660664266,-0.8078811019521153,,,,,,,,,,,,,,,,,,,,,,,,,,,,,,,,,0.0.0.0,10.56.9.191,1,0
2016-09-12 12:11:15.305,63,6B5B5B79-A063-42A5-9845-86B7C35C751C,,,,,,,,,,1473675075.303857,-9.681503295898438,-51.14340972900391,-7.275009155273438,113.4863357543945,109.8655395507812,89,262923.84977575,0.08038330078125,-0.97186279296875,-0.0721893310546875,262923.837899625,-0.01387027558935069,-0.03524320860167261,-0.8487307972806226,,,,,,,,,,,,,,,,,,,,,,,,,,,,,,,,,0.0.0.0,10.56.9.191,1,0
2016-09-12 12:11:15.325,64,6B5B5B79-A063-42A5-9845-86B7C35C751C,,,,,,,,,,,,,,,,,262923.869294,0.101654052734375,-0.9572296142578125,-0.05047607421875,262923.8578444167,0.05233484384558314,-0.07373973479098601,-0.8735008585794497,,,,,,,,,,,,,,,,,,,,,,,,,,,,,,,,,0.0.0.0,10.56.9.191,1,0
2016-09-12 12:11:15.345,65,6B5B5B79-A063-42A5-9845-86B7C35C751C,,,,,,,,,,,,,,,,,262923.888916,0.1200408935546875,-0.949920654296875,-0.0504150390625,262923.8778334167,0.06000368252057531,-0.09315178229268259,-0.9021516782187401,,,,,,,,,,,,,,,,,,,,,,,262923.8708167917,unknown,1,2016-09-12 12:11:15.325,,,,,,,0.0.0.0,10.56.9.191,1,0
2016-09-12 12:11:15.371,66,6B5B5B79-A063-42A5-9845-86B7C35C751C,,,,,,,,,,1473675075.349029,-8.935333251953125,-51.36931610107422,-6.43951416015625,116.2260818481445,112.6052856445312,89,262923.908509,0.1397857666015625,-0.9263458251953125,-0.0368499755859375,262923.8978524167,0.01777393711518883,-0.03310522287855699,-0.9507495744227241,,,,,,,,,,,,,,,,,,,,,,,,,,,,,,,,,0.0.0.0,10.56.9.191,1,0
2016-09-12 12:11:15.384,67,6B5B5B79-A063-42A5-9845-86B7C35C751C,,,,,,,,,,1473675075.378866,-6.011734008789062,-51.68297576904297,-7.22821044921875,117.6413497924805,114.0205535888672,89,262923.928101,0.17010498046875,-0.9157257080078125,-0.0439910888671875,262923.9178414167,-0.02539270836168752,0.0575666238070438,-1.016500891207908,,,,,,,,,,,,,,,,,,,,,,,,,,,,,,,,,0.0.0.0,10.56.9.191,1,0
2016-09-12 12:11:15.404,68,6B5B5B79-A063-42A5-9845-86B7C35C751C,,,,,,,,,,,,,,,,,262923.947693,0.1978912353515625,-0.9170074462890625,-0.0496978759765625,262923.9378614167,0.0007600661751086146,0.1098511339080245,-1.09632728067027,,,,,,,,,,,,,,,,,,,,,,,,,,,,,,,,,0.0.0.0,10.56.9.191,1,0
2016-09-12 12:11:15.423,69,6B5B5B79-A063-42A5-9845-86B7C35C751C,,,,,,,,,,,,,,,,,262923.967316,0.21600341796875,-0.91815185546875,-0.0577850341796875,,,,,,,,,,,,,,,,,,,,,,,,,,,,,,,,,,,,,0.0.0.0,10.56.9.191,1,0
2016-09-12 12:11:15.450,70,6B5B5B79-A063-42A5-9845-86B7C35C751C,,,,,,,,,,1473675075.423877,-4.81634521484375,-52.21326446533203,-7.434967041015625,120.5145950317383,116.893798828125,89,262923.986908,0.251922607421875,-0.9172515869140625,-0.06109619140625,262923.9778694167,0.04262815430446233,0.01804371533361386,-1.141469459043768,,,,,,,,,,,,,,,,,,,,,,,,,,,,,,,,,0.0.0.0,10.56.9.191,1,0
2016-09-12 12:11:15.462,71,6B5B5B79-A063-42A5-9845-86B7C35C751C,,,,,,,,,,1473675075.454036,-2.344802856445312,-52.44658660888672,-6.804550170898438,122.1186599731445,118.4978637695312,89,262924.006501,0.2727813720703125,-0.911865234375,-0.0766754150390625,262923.9978584167,0.03727253735231299,-0.04776086467337205,-1.137080835883426,,,,,,,,,,,,,,,,,,,,,,,,,,,,,,,,,0.0.0.0,10.56.9.191,1,0
2016-09-12 12:11:15.482,72,6B5B5B79-A063-42A5-9845-86B7C35C751C,,,,,,,,,,,,,,,,,262924.026123,0.306915283203125,-0.8965301513671875,-0.0689849853515625,,,,,,,,,,,,,,,,,,,,,,,,,,,,,,,,,,,,,0.0.0.0,10.56.9.191,1,0
2016-09-12 12:11:15.501,73,6B5B5B79-A063-42A5-9845-86B7C35C751C,,,,,,,,,,1473675075.498959,0.0560302734375,-52.38149261474609,-6.927505493164062,125.632682800293,122.0118865966797,89,262924.045716,0.32806396484375,-0.886627197265625,-0.053009033203125,262924.0378674167,0.06927041784961503,-0.1073131413891789,-1.144035681070168,,,,,,,,,,,,,,,,,,,,,,,,,,,,,,,,,0.0.0.0,10.56.9.191,1,0
2016-09-12 12:11:15.530,74,6B5B5B79-A063-42A5-9845-86B7C35C751C,,,,,,,,,,1473675075.529057,0.9537200927734375,-52.68579864501953,-7.214584350585938,127.4320755004883,123.811279296875,89,262924.065308,0.3490142822265625,-0.8685760498046875,-0.039581298828125,262924.0578864167,0.09163777521297253,-0.07227579513976945,-1.144957933755662,,,,,,,,,,,,,,,,,,,,,,,,,,,,,,,,,0.0.0.0,10.56.9.191,1,0
2016-09-12 12:11:15.541,75,6B5B5B79-A063-42A5-9845-86B7C35C751C,,,,,,,,,,,,,,,,,262924.0849,0.3848419189453125,-0.86993408203125,-0.0394287109375,,,,,,,,,,,,,,,,,,,,,,,,,,,,,,,,,,,,,0.0.0.0,10.56.9.191,1,0
2016-09-12 12:11:15.560,76,6B5B5B79-A063-42A5-9845-86B7C35C751C,,,,,,,,,,,,,,,,,262924.104523,0.419158935546875,-0.8704986572265625,-0.0463104248046875,262924.0978954167,0.1768163195180669,-0.03191718671627265,-1.14415312647424,,,,,,,,,,,,,,,,,,,,,,,,,,,,,,,,,0.0.0.0,10.56.9.191,1,0
2016-09-12 12:11:15.580,77,6B5B5B79-A063-42A5-9845-86B7C35C751C,,,,,,,,,,1473675075.574073,4.1790771484375,-52.54749298095703,-6.728668212890625,131.013916015625,127.3931121826172,89,262924.124115,0.4351654052734375,-0.8655242919921875,-0.0479736328125,262924.1179144167,0.2161315014264707,-0.1029665961740606,-1.132872508728883,,,,,,,,,,,,,,,,,,,,,,,,,,,,,,,,,0.0.0.0,10.56.9.191,1,0
2016-09-12 12:11:15.611,78,6B5B5B79-A063-42A5-9845-86B7C35C751C,,,,,,,,,,1473675075.603913,5.302261352539062,-52.70156097412109,-6.564453125,132.9098052978516,129.2890014648438,89,262924.143708,0.4605255126953125,-0.844512939453125,-0.0215301513671875,,,,,,,,,,,,,,,,,,,,,,,,,,,,,,,,,,,,,0.0.0.0,10.56.9.191,1,0
2016-09-12 12:11:15.619,79,6B5B5B79-A063-42A5-9845-86B7C35C751C,,,,,,,,,,,,,,,,,262924.1633,0.4852294921875,-0.82891845703125,0.0072021484375,262924.1579234167,0.1485101129238327,-0.1393965093574725,-1.060999117229824,,,,,,,,,,,,,,,,,,,,,,,,,,,,,,,,,0.0.0.0,10.56.9.191,1,0
2016-09-12 12:11:15.639,80,6B5B5B79-A063-42A5-9845-86B7C35C751C,,,,,,,,,,,,,,,,,262924.182892,0.502685546875,-0.834716796875,-0.005035400390625,262924.1779124167,0.1397845319282971,-0.1210574494589689,-1.033422883090381,,,,,,,,,,,,,,,,,,,,,,,,,,,,,,,,,0.0.0.0,10.56.9.191,1,0
2016-09-12 12:11:15.658,81,6B5B5B79-A063-42A5-9845-86B7C35C751C,,,,,,,,,,1473675075.6489,7.103530883789062,-52.40685272216797,-5.796234130859375,136.5092163085938,132.8884124755859,89,262924.202515,0.5381317138671875,-0.820556640625,0.0076141357421875,,,,,,,,,,,,,,,,,,,,,,,,,,,,,,,,,,,,,0.0.0.0,10.56.9.191,1,0
2016-09-12 12:11:15.679,82,6B5B5B79-A063-42A5-9845-86B7C35C751C,,,,,,,,,,,,,,,,,262924.222107,0.5648193359375,-0.8207244873046875,0.0006561279296875,262924.1979314167,0.153258529147444,-0.1163069027064855,-0.9842468146137408,,,,,,,,,,,,,,,,,,,,,,,,,,,,,,,,,0.0.0.0,10.56.9.191,1,0
2016-09-12 12:11:15.697,83,6B5B5B79-A063-42A5-9845-86B7C35C751C,,,,,,,,,,1473675075.678979,8.90545654296875,-52.26476287841797,-6.07672119140625,138.1859893798828,134.565185546875,89,262924.2417,0.5821380615234375,-0.81011962890625,-0.0106048583984375,262924.2379404167,0.196177500642943,-0.1365437311977797,-0.8856408784085759,,,,,,,,,,,,,,,,,,,,,,,,,,,,,,,,,0.0.0.0,10.56.9.191,1,0
2016-09-12 12:11:15.717,84,6B5B5B79-A063-42A5-9845-86B7C35C751C,,,,,,,,,,,,,,,,,262924.261322,0.59716796875,-0.7870025634765625,0.0048675537109375,,,,,,,,,,,,,,,,,,,,,,,,,,,,,,,,,,,,,0.0.0.0,10.56.9.191,1,0
2016-09-12 12:11:15.737,85,6B5B5B79-A063-42A5-9845-86B7C35C751C,,,,,,,,,,1473675075.724115,10.70918273925781,-51.82137298583984,-5.834747314453125,141.3805236816406,137.7597198486328,89,262924.280915,0.61572265625,-0.763275146484375,0.0093994140625,262924.2579294167,0.2278558018094355,-0.1531765037858695,-0.8500703673089325,,,,,,,,,,,,,,,,,,,,,,,,,,,,,,,,,0.0.0.0,10.56.9.191,1,0
2016-09-12 12:11:15.770,86,6B5B5B79-A063-42A5-9845-86B7C35C751C,,,,,,,,,,1473675075.753951,11.38395690917969,-51.74793243408203,-5.377609252929688,143.0029449462891,139.3821411132812,89,262924.300507,0.635833740234375,-0.7527008056640625,0.010986328125,262924.2979684167,0.1969705900155685,-0.1797173008934902,-0.8492631631825295,,,,,,,,,,,,,,,,,,,,,,,,,,,,,,,,,0.0.0.0,10.56.9.191,1,0
2016-09-12 12:11:15.776,87,6B5B5B79-A063-42A5-9845-86B7C35C751C,,,,,,,,,,,,,,,,,262924.320099,0.6574859619140625,-0.7370147705078125,-0.00323486328125,,,,,,,,,,,,,,,,,,,,,,,,,,,,,,,,,,,,,0.0.0.0,10.56.9.191,1,0
2016-09-12 12:11:15.795,88,6B5B5B79-A063-42A5-9845-86B7C35C751C,,,,,,,,,,,,,,,,,262924.339722,0.6890411376953125,-0.72137451171875,0.0018310546875,262924.3179574167,0.1384742566719781,-0.1532529365091548,-0.8584947447851802,,,,,,,,,,,,,,,,,,,,,,,,,,,,,,,,,0.0.0.0,10.56.9.191,1,0
2016-09-12 12:11:15.815,89,6B5B5B79-A063-42A5-9845-86B7C35C751C,,,,,,,,,,1473675075.799052,13.56111145019531,-51.53176116943359,-5.429412841796875,146.1426696777344,142.5218658447266,89,262924.359314,0.7088165283203125,-0.724700927734375,-0.0069580078125,262924.3579664167,0.1150581464713474,-0.09697421740527332,-0.859968005500212,,,,,,,,,,,,,,,,,,,,,,,,,,,,,,,,,0.0.0.0,10.56.9.191,1,0
2016-09-12 12:11:15.835,90,6B5B5B79-A063-42A5-9845-86B7C35C751C,,,,,,,,,,1473675075.828901,14.76518249511719,-51.08637237548828,-5.344345092773438,147.6436157226562,144.0228118896484,89,262924.378907,0.7213592529296875,-0.723236083984375,-0.036041259765625,,,,,,,,,,,,,,,,,,,,,,,,,,,,,,,,,,,,,0.0.0.0,10.56.9.191,1,0
2016-09-12 12:11:15.855,91,6B5B5B79-A063-42A5-9845-86B7C35C751C,,,,,,,,,,1473675075.850333,14.84197998046875,-50.78536224365234,-4.821014404296875,149.1279296875,145.5071258544922,89,262924.398499,0.7418670654296875,-0.7125396728515625,-0.0385589599609375,262924.3779854167,0.150034506331794,-0.1286178974775948,-0.8381809509383827,,,,,,,,,,,,,,,,,,,,,,,,,,,,,,,,,0.0.0.0,10.56.9.191,1,0
2016-09-12 12:11:15.874,92,6B5B5B79-A063-42A5-9845-86B7C35C751C,,,,,,,,,,,,,,,,,262924.418122,0.754608154296875,-0.706329345703125,-0.032318115234375,262924.4179944167,0.1442474572830519,-0.122674254556756,-0.7764211799950091,,,,,,,,,,,,,,,,,,,,,,,,,,,,,,,,,0.0.0.0,10.56.9.191,1,0
2016-09-12 12:11:15.893,93,6B5B5B79-A063-42A5-9845-86B7C35C751C,,,,,,,,,,1473675075.874223,16.64532470703125,-50.49327850341797,-5.102767944335938,150.6427307128906,147.0219268798828,89,262924.437714,0.761138916015625,-0.684173583984375,-0.03289794921875,,,,,,,,,,,,,,,,,,,,,,,,,,,,,,,,,,,,,0.0.0.0,10.56.9.191,1,0
2016-09-12 12:11:15.913,94,6B5B5B79-A063-42A5-9845-86B7C35C751C,,,,,,,,,,1473675075.903962,17.17030334472656,-50.49536895751953,-5.096725463867188,152.0053253173828,148.384521484375,89,262924.457306,0.775970458984375,-0.66400146484375,-0.019256591796875,262924.4379834167,0.09164416679958873,-0.1327053171186484,-0.7193855905093272,,,,,,,,,,,,,,,,,,,,,,,,,,,,,,,,,0.0.0.0,10.56.9.191,1,0
2016-09-12 12:11:15.933,95,6B5B5B79-A063-42A5-9845-86B7C35C751C,,,,,,,,,,,,,,,,,262924.476899,0.815704345703125,-0.70184326171875,0.0304107666015625,262924.4580024167,0.01785809300563534,-0.122709940915363,-0.6775595803251967,,,,,,,,,,,,,,,,,,,,,,,,,,,,,,,,,0.0.0.0,10.56.9.191,1,0
2016-09-12 12:11:15.952,96,6B5B5B79-A063-42A5-9845-86B7C35C751C,,,,,,,,,,1473675075.948975,18.00007629394531,-49.89754486083984,-4.642257690429688,120.6933822631836,117.0725860595703,10,262924.496521,0.8627166748046875,-0.73040771484375,0.0372314453125,262924.4780224167,0.009973538282346747,-0.05096171798753828,-0.6202685936909761,,,,,,,,,,,,,,,,,,,,,,,,,,,,,,,,,0.0.0.0,10.56.9.191,1,0
2016-09-12 12:11:15.972,97,6B5B5B79-A063-42A5-9845-86B7C35C751C,,,,,,,,,,,,,,,,,262924.516114,0.883880615234375,-0.729736328125,-0.003326416015625,262924.4980114167,0.1029508835236291,0.03073820530169457,-0.523537789209336,,,,,,,,,,,,,,,,,,,,,,,262924.5028357917,unknown,2,2016-09-12 12:11:15.952,,,,,,,0.0.0.0,10.56.9.191,1,0
2016-09-12 12:11:15.991,98,6B5B5B79-A063-42A5-9845-86B7C35C751C,,,,,,,,,,1473675075.979045,19.050048828125,-49.97765350341797,-5.004501342773438,121.5412216186523,117.9204254150391,10,262924.535706,0.881378173828125,-0.68359375,-0.0094757080078125,262924.5180304167,0.1555563045359643,0.04540769553417803,-0.4387842854142183,,,,,,,,,,,,,,,,,,,,,,,,,,,,,,,,,0.0.0.0,10.56.9.191,1,0
2016-09-12 12:11:16.011,99,6B5B5B79-A063-42A5-9845-86B7C35C751C,,,,,,,,,,,,,,,,,262924.555298,0.8558349609375,-0.628692626953125,-0.0329132080078125,262924.5380194167,0.1434527700137722,0.02682548902815015,-0.3866204165106183,,,,,,,,,,,,,,,,,,,,,,,,,,,,,,,,,0.0.0.0,10.56.9.191,1,0
2016-09-12 12:11:16.031,100,6B5B5B79-A063-42A5-9845-86B7C35C751C,,,,,,,,,,1473675076.024153,19.87992858886719,-49.30410003662109,-4.250686645507812,122.9148330688477,119.2940368652344,10,262924.574921,0.8550262451171875,-0.611602783203125,-0.0352020263671875,262924.5580394167,0.01961631195730565,-0.02158199115789314,-0.3441054465524843,,,,,,,,,,,,,,,,,,,,,,,,,,,,,,,,,0.0.0.0,10.56.9.191,1,0
2016-09-12 12:11:16.050,101,6B5B5B79-A063-42A5-9845-86B7C35C751C,1473675076.000011,51.03069853042348,13.72821955942896,136.8535,0,-1,4,100,-9999,,,,,,,,262924.594513,0.8423614501953125,-0.6158599853515625,-0.0175323486328125,262924.5780284167,-0.05173669786475135,-0.0831601345149233,-0.3425706668162716,,,,,,,,,,,,,,,,,,,,,,,,,,,,,,,,,0.0.0.0,10.56.9.191,1,0
2016-09-12 12:11:16.070,102,6B5B5B79-A063-42A5-9845-86B7C35C751C,,,,,,,,,,1473675076.054135,19.58279418945312,-49.00292205810547,-4.25665283203125,123.4379653930664,119.8171691894531,10,262924.614106,0.8235321044921875,-0.62548828125,-0.02008056640625,262924.5980474167,-0.02966495138239263,-0.09338773836526361,-0.3039226067609327,,,,,,,,,,,,,,,,,,,,,,,,,,,,,,,,,0.0.0.0,10.56.9.191,1,0
2016-09-12 12:11:16.091,103,6B5B5B79-A063-42A5-9845-86B7C35C751C,,,,,,,,,,,,,,,,,262924.633698,0.810546875,-0.620758056640625,-0.01312255859375,262924.6180364167,-0.008633968254036891,-0.07178603981530388,-0.2685720727673299,,,,,,,,,,,,,,,,,,,,,,,,,,,,,,,,,0.0.0.0,10.56.9.191,1,0
2016-09-12 12:11:16.109,104,6B5B5B79-A063-42A5-9845-86B7C35C751C,,,,,,,,,,1473675076.09924,21.08355712890625,-48.93407440185547,-4.314987182617188,124.4099349975586,120.7891387939453,10,262924.653321,0.789093017578125,-0.641143798828125,-0.01507568359375,262924.6380564167,0.0624633781033725,-0.03109986257772733,-0.2359342346600818,,,,,,,,,,,,,,,,,,,,,,,,,,,,,,,,,0.0.0.0,10.56.9.191,1,0
2016-09-12 12:11:16.129,105,6B5B5B79-A063-42A5-9845-86B7C35C751C,,,,,,,,,,,,,,,,,262924.672913,0.7920379638671875,-0.63372802734375,0.004180908203125,262924.6580454167,0.1506523597046924,-0.01491769684607885,-0.2105082367847683,,,,,,,,,,,,,,,,,,,,,,,,,,,,,,,,,0.0.0.0,10.56.9.191,1,0
2016-09-12 12:11:16.148,106,6B5B5B79-A063-42A5-9845-86B7C35C751C,,,,,,,,,,1473675076.128922,21.159423828125,-48.85956573486328,-4.389739990234375,124.8917617797852,121.2709655761719,10,262924.692505,0.7888641357421875,-0.6191864013671875,0.009124755859375,262924.6780644167,0.1430634158624026,0.005447229693648073,-0.1925209804662642,,,,,,,,,,,,,,,,,,,,,,,,,,,,,,,,,0.0.0.0,10.56.9.191,1,0
2016-09-12 12:11:16.170,107,6B5B5B79-A063-42A5-9845-86B7C35C751C,,,,,,,,,,,,,,,,,262924.712128,0.790924072265625,-0.619171142578125,0.0181732177734375,262924.6980844167,0.09191634186299483,0.0214328541368487,-0.1877842821514492,,,,,,,,,,,,,,,,,,,,,,,,,,,,,,,,,0.0.0.0,10.56.9.191,1,0
2016-09-12 12:11:16.188,108,6B5B5B79-A063-42A5-9845-86B7C35C751C,,,,,,,,,,1473675076.174758,20.85797119140625,-48.93242645263672,-4.017593383789062,125.7192001342773,122.0984039306641,10,262924.73172,0.780670166015625,-0.6383514404296875,0.0201263427734375,262924.7180734167,0.0642413044471094,0.04053917074540418,-0.1892008175352624,,,,,,,,,,,,,,,,,,,,,,,,,,,,,,,,,0.0.0.0,10.56.9.191,1,0
2016-09-12 12:11:16.207,109,6B5B5B79-A063-42A5-9845-86B7C35C751C,,,,,,,,,,1473675076.204115,21.68751525878906,-48.48610687255859,-4.161849975585938,126.0150527954102,122.3942565917969,10,262924.751313,0.7713623046875,-0.6490020751953125,0.00408935546875,262924.7380934167,0.02999411809312643,0.06945524122926654,-0.1661929699297408,,,,,,,,,,,,,,,,,,,,,,,,,,,,,,,,,0.0.0.0,10.56.9.191,1,0
2016-09-12 12:11:16.227,110,6B5B5B79-A063-42A5-9845-86B7C35C751C,,,,,,,,,,,,,,,,,262924.770905,0.769134521484375,-0.6403045654296875,-0.0016021728515625,262924.7580824167,0.04343615737919237,0.03176671811468317,-0.1126354688277023,,,,,,,,,,,,,,,,,,,,,,,,,,,,,,,,,0.0.0.0,10.56.9.191,1,0
2016-09-12 12:11:16.250,111,6B5B5B79-A063-42A5-9845-86B7C35C751C,,,,,,,,,,1473675076.249197,21.3837890625,-48.78376007080078,-3.712814331054688,126.4543991088867,122.8336029052734,10,262924.790497,0.76873779296875,-0.62518310546875,0.023162841796875,262924.7781014167,0.0846491078803866,-0.02515914913408757,-0.07045419295415525,,,,,,,,,,,,,,,,,,,,,,,,,,,,,,,,,0.0.0.0,10.56.9.191,1,0
2016-09-12 12:11:16.266,112,6B5B5B79-A063-42A5-9845-86B7C35C751C,,,,,,,,,,,,,,,,,262924.81012,0.7666778564453125,-0.621795654296875,0.0264434814453125,262924.7980904167,0.07600342171755337,-0.04622581862105038,-0.05343020200193273,,,,,,,,,,,,,,,,,,,,,,,,,,,,,,,,,0.0.0.0,10.56.9.191,1,0
2016-09-12 12:11:16.285,113,6B5B5B79-A063-42A5-9845-86B7C35C751C,,,,,,,,,,1473675076.279128,21.45979309082031,-48.70944976806641,-3.862579345703125,126.6744766235352,123.0536804199219,10,262924.829712,0.761138916015625,-0.621826171875,0.0461578369140625,262924.8181104167,0.04297276734951859,-0.0387585812405772,-0.05060751756255775,,,,,,,,,,,,,,,,,,,,,,,,,,,,,,,,,0.0.0.0,10.56.9.191,1,0
2016-09-12 12:11:16.305,114,6B5B5B79-A063-42A5-9845-86B7C35C751C,,,,,,,,,,,,,,,,,262924.849305,0.762298583984375,-0.62518310546875,0.04364013671875,262924.8380994167,0.004586496029334464,-0.01000629516375472,-0.04363642709316633,,,,,,,,,,,,,,,,,,,,,,,,,,,,,,,,,0.0.0.0,10.56.9.191,1,0
2016-09-12 12:11:16.331,115,6B5B5B79-A063-42A5-9845-86B7C35C751C,,,,,,,,,,1473675076.324224,22.06077575683594,-48.63719940185547,-4.006271362304688,126.9235000610352,123.3027038574219,10,262924.868897,0.765228271484375,-0.6219940185546875,0.018798828125,262924.8581184167,0.001456216484055327,0.006899451436068282,-0.0522461605812835,,,,,,,,,,,,,,,,,,,,,,,,,,,,,,,,,0.0.0.0,10.56.9.191,1,0
2016-09-12 12:11:16.344,116,6B5B5B79-A063-42A5-9845-86B7C35C751C,,,,,,,,,,,,,,,,,262924.88852,0.7801513671875,-0.6248931884765625,0.003082275390625,262924.8781384167,-0.02300864655384859,0.01111496912555471,-0.05571945527496484,,,,,,,,,,,,,,,,,,,,,,,,,,,,,,,,,0.0.0.0,10.56.9.191,1,0
2016-09-12 12:11:16.364,117,6B5B5B79-A063-42A5-9845-86B7C35C751C,,,,,,,,,,1473675076.354198,21.68449401855469,-48.70995330810547,-3.709976196289062,126.9914779663086,123.3706817626953,10,262924.908112,0.782470703125,-0.6269989013671875,0.000701904296875,262924.8981274167,0.004730306728198743,-0.02719593473578017,-0.06277869637643788,,,,,,,,,,,,,,,,,,,,,,,,,,,,,,,,,0.0.0.0,10.56.9.191,1,0
2016-09-12 12:11:16.383,118,6B5B5B79-A063-42A5-9845-86B7C35C751C,,,,,,,,,,,,,,,,,262924.927704,0.7862091064453125,-0.6260833740234375,-0.0022735595703125,,,,,,,,,,,,,,,,,,,,,,,,,,,,,,,,,,,,,0.0.0.0,10.56.9.191,1,0
2016-09-12 12:11:16.411,119,6B5B5B79-A063-42A5-9845-86B7C35C751C,,,,,,,,,,,,,,,,,262924.947297,0.7850799560546875,-0.6280364990234375,0.0014190673828125,262924.9381354167,-0.01123268084573621,-0.02189651048263149,-0.06403118103710215,,,,,,,,,,,,,,,,,,,,,,,,,,,,,,,,,0.0.0.0,10.56.9.191,1,0
2016-09-12 12:11:16.423,120,6B5B5B79-A063-42A5-9845-86B7C35C751C,,,,,,,,,,1473675076.411556,22.136474609375,-48.56250762939453,-4.006027221679688,127.2533645629883,123.632568359375,10,262924.966919,0.7793731689453125,-0.62860107421875,0.0137939453125,262924.9581554167,0.01103880271837844,-0.01965226463202172,-0.05206985931712026,,,,,,,,,,,,,,,,,,,,,,,,,,,,,,,,,0.0.0.0,10.56.9.191,1,0
2016-09-12 12:11:16.442,121,6B5B5B79-A063-42A5-9845-86B7C35C751C,,,,,,,,,,,,,,,,,262924.986512,0.77569580078125,-0.6290283203125,0.0096282958984375,,,,,,,,,,,,,,,,,,,,,,,,,,,,,,,,,,,,,0.0.0.0,10.56.9.191,1,0
2016-09-12 12:11:16.462,122,6B5B5B79-A063-42A5-9845-86B7C35C751C,,,,,,,,,,1473675076.444414,22.43931579589844,-48.26372528076172,-4.005096435546875,127.465705871582,123.8449096679688,10,262925.006104,0.781036376953125,-0.631866455078125,0.008636474609375,262924.9981634167,0.01706766679409982,0.006328736014464302,-0.004098604917631947,,,,,,,,,,,,,,,,,,,,,,,,,,,,,,,,,0.0.0.0,10.56.9.191,1,0
2016-09-12 12:11:16.491,123,6B5B5B79-A063-42A5-9845-86B7C35C751C,,,,,,,,,,1473675076.474201,21.75949096679688,-48.71025848388672,-3.7091064453125,127.5028305053711,123.8820343017578,10,262925.025696,0.7750091552734375,-0.6297760009765625,0.0040740966796875,262925.0181524167,0.02645850542993723,-0.01889885635963831,0.02166028809394147,,,,,,,,,,,,,,,,,,,,,,,,,,,,,,,,,0.0.0.0,10.56.9.191,1,0
2016-09-12 12:11:16.502,124,6B5B5B79-A063-42A5-9845-86B7C35C751C,,,,,,,,,,,,,,,,,262925.045319,0.762939453125,-0.6276092529296875,0.0174102783203125,,,,,,,,,,,,,,,,,,,,,,,,,,,,,,,,,,,,,0.0.0.0,10.56.9.191,1,0
2016-09-12 12:11:16.521,125,6B5B5B79-A063-42A5-9845-86B7C35C751C,,,,,,,,,,1473675076.504302,22.43601989746094,-48.56313323974609,-3.777587890625,127.6970291137695,124.0762329101562,10,262925.064911,0.765167236328125,-0.6298370361328125,0.0117340087890625,262925.0581614167,0.02631469473107295,0.001476989140557945,0.04079376894561575,,,,,,,,,,,,,,,,,,,,,,,,,,,,,,,,,0.0.0.0,10.56.9.191,1,0
2016-09-12 12:11:16.540,126,6B5B5B79-A063-42A5-9845-86B7C35C751C,,,,,,,,,,,,,,,,,262925.084504,0.7709503173828125,-0.6298675537109375,0.013031005859375,262925.0781804167,0.01894146693707957,0.0141126232485479,0.03001782022682813,,,,,,,,,,,,,,,,,,,,,,,,,,,,,,,,,0.0.0.0,10.56.9.191,1,0
2016-09-12 12:11:16.570,127,6B5B5B79-A063-42A5-9845-86B7C35C751C,,,,,,,,,,1473675076.549205,22.51171875,-48.48844146728516,-3.77734375,127.817512512207,124.1967163085938,10,262925.104126,0.763336181640625,-0.6313323974609375,0.0264129638671875,,,,,,,,,,,,,,,,,,,,,,,,,,,,,,,,,,,,,0.0.0.0,10.56.9.191,1,0
2016-09-12 12:11:16.579,128,6B5B5B79-A063-42A5-9845-86B7C35C751C,,,,,,,,,,,,,,,,,262925.123719,0.76873779296875,-0.627166748046875,0.023162841796875,262925.1181894167,-0.02243926271278964,-0.01794597732160795,0.01046995150953752,,,,,,,,,,,,,,,,,,,,,,,,,,,,,,,,,0.0.0.0,10.56.9.191,1,0
2016-09-12 12:11:16.599,129,6B5B5B79-A063-42A5-9845-86B7C35C751C,,,,,,,,,,1473675076.579355,21.38545227050781,-48.48227691650391,-3.1153564453125,127.8930587768555,124.2722625732422,10,262925.143311,0.7708282470703125,-0.6334686279296875,0.001495361328125,262925.1382084167,-0.04788097323853462,0.0169494224417003,-0.004826446843550603,,,,,,,,,,,,,,,,,,,,,,,,,,,,,,,,,0.0.0.0,10.56.9.191,1,0
2016-09-12 12:11:16.619,130,6B5B5B79-A063-42A5-9845-86B7C35C751C,,,,,,,,,,,,,,,,,262925.162903,0.77471923828125,-0.631805419921875,0.0056915283203125,,,,,,,,,,,,,,,,,,,,,,,,,,,,,,,,,,,,,0.0.0.0,10.56.9.191,1,0
2016-09-12 12:11:16.650,131,6B5B5B79-A063-42A5-9845-86B7C35C751C,,,,,,,,,,1473675076.624291,22.66229248046875,-48.48979949951172,-4.075607299804688,127.9509506225586,124.3301544189453,10,262925.182495,0.7755279541015625,-0.63751220703125,0.0012969970703125,262925.1581984167,-0.02655437922918008,0.0009747169589690011,-0.008817726369252358,,,,,,,,,,,,,,,,,,,,,,,,,,,,,,,,,0.0.0.0,10.56.9.191,1,0
2016-09-12 12:11:16.658,132,6B5B5B79-A063-42A5-9845-86B7C35C751C,,,,,,,,,,1473675076.654837,22.81413269042969,-48.18907928466797,-3.551406860351562,128.0004425048828,124.379638671875,10,262925.202118,0.7799530029296875,-0.6365509033203125,-0.0087432861328125,262925.1982064167,-0.0222395256310337,-0.02034308861878828,-0.01617577414503229,,,,,,,,,,,,,,,,,,,,,,,,,,,,,,,,,0.0.0.0,10.56.9.191,1,0
2016-09-12 12:11:16.677,133,6B5B5B79-A063-42A5-9845-86B7C35C751C,,,,,,,,,,,,,,,,,262925.221711,0.7881622314453125,-0.6449737548828125,-0.0142059326171875,,,,,,,,,,,,,,,,,,,,,,,,,,,,,,,,,,,,,0.0.0.0,10.56.9.191,1,0
2016-09-12 12:11:16.697,134,6B5B5B79-A063-42A5-9845-86B7C35C751C,,,,,,,,,,,,,,,,,262925.241303,0.788543701171875,-0.6390533447265625,-0.0041046142578125,262925.2182264167,-0.03617691287985439,-0.003218962809578775,-0.00357875587284848,,,,,,,,,,,,,,,,,,,,,,,,,,,,,,,,,0.0.0.0,10.56.9.191,1,0
2016-09-12 12:11:16.719,135,6B5B5B79-A063-42A5-9845-86B7C35C751C,,,,,,,,,,1473675076.69933,22.13874816894531,-48.26177215576172,-3.70855712890625,128.0178375244141,124.3970336914062,10,262925.260895,0.7999114990234375,-0.6275787353515625,0.0007476806640625,262925.2582344167,-0.005571333000445766,-0.001785649510898129,0.03299656590608176,,,,,,,,,,,,,,,,,,,,,,,,,,,,,,,,,0.0.0.0,10.56.9.191,1,0
2016-09-12 12:11:16.737,136,6B5B5B79-A063-42A5-9845-86B7C35C751C,,,,,,,,,,1473675076.731017,22.58958435058594,-48.18875885009766,-3.779006958007812,127.9892349243164,124.3684387207031,10,262925.280487,0.804595947265625,-0.6226654052734375,4.57763671875e-05,,,,,,,,,,,,,,,,,,,,,,,,,,,,,,,,,,,,,0.0.0.0,10.56.9.191,1,0
2016-09-12 12:11:16.756,137,6B5B5B79-A063-42A5-9845-86B7C35C751C,,,,,,,,,,,,,,,,,262925.30011,0.8081817626953125,-0.6174468994140625,-0.004486083984375,262925.2782544167,-0.003457848359358883,0.000360325695487721,0.03514573690577571,,,,,,,,,,,,,,,,,,,,,,,,,,,,,,,,,0.0.0.0,10.56.9.191,1,0
2016-09-12 12:11:16.775,138,6B5B5B79-A063-42A5-9845-86B7C35C751C,,,,,,,,,,1473675076.774306,21.76162719726562,-48.48526763916016,-3.71099853515625,127.9121627807617,124.2913665771484,10,262925.319703,0.8123016357421875,-0.619415283203125,0.011322021484375,262925.3182624167,-0.02171807868959619,-0.01535232473597978,0.0563162696752516,,,,,,,,,,,,,,,,,,,,,,,,,,,,,,,,,0.0.0.0,10.56.9.191,1,0
2016-09-12 12:11:16.795,139,6B5B5B79-A063-42A5-9845-86B7C35C751C,,,,,,,,,,,,,,,,,262925.339295,0.8206024169921875,-0.6163330078125,0.0123443603515625,,,,,,,,,,,,,,,,,,,,,,,,,,,,,,,,,,,,,0.0.0.0,10.56.9.191,1,0
2016-09-12 12:11:16.815,140,6B5B5B79-A063-42A5-9845-86B7C35C751C,,,,,,,,,,1473675076.804343,21.53677368164062,-48.48456573486328,-3.788589477539062,127.8386306762695,124.2178344726562,10,262925.358887,0.8306121826171875,-0.6110382080078125,0.0096282958984375,262925.3382514167,-0.02831419607750444,-0.06498565797178654,0.08410289354081135,,,,,,,,,,,,,,,,,,,,,,,,,,,,,,,,,0.0.0.0,10.56.9.191,1,0
2016-09-12 12:11:16.835,141,6B5B5B79-A063-42A5-9845-86B7C35C751C,,,,,,,,,,,,,,,,,262925.378479,0.826995849609375,-0.6041259765625,0.0080108642578125,262925.3782604167,-0.03952876742782812,-0.06633454906391167,0.1596847368578052,,,,,,,,,,,,,,,,,,,,,,,,,,,,,,,,,0.0.0.0,10.56.9.191,1,0
2016-09-12 12:11:16.854,142,6B5B5B79-A063-42A5-9845-86B7C35C751C,,,,,,,,,,1473675076.849267,21.98519897460938,-48.71208953857422,-4.081497192382812,127.5946578979492,123.9738616943359,10,262925.398102,0.8344879150390625,-0.600799560546875,0.0130462646484375,,,,,,,,,,,,,,,,,,,,,,,,,,,,,,,,,,,,,0.0.0.0,10.56.9.191,1,0
2016-09-12 12:11:16.873,143,6B5B5B79-A063-42A5-9845-86B7C35C751C,,,,,,,,,,,,,,,,,262925.417694,0.8506317138671875,-0.615234375,0.029510498046875,262925.3982794167,-0.04925516436101551,-0.008786301068389422,0.1786126216733253,,,,,,,,,,,,,,,,,,,,,,,,,,,,,,,,,0.0.0.0,10.56.9.191,1,0
2016-09-12 12:11:16.893,144,6B5B5B79-A063-42A5-9845-86B7C35C751C,,,,,,,,,,1473675076.879247,21.31068420410156,-48.63404083251953,-3.939926147460938,127.3117294311523,123.6909332275391,10,262925.437287,0.8705291748046875,-0.626434326171875,0.0355224609375,262925.4182684167,-0.05253724408842916,0.05930620063108356,0.1901174775824676,,,,,,,,,,,,,,,,,,,,,,,,,,,,,,,,,0.0.0.0,10.56.9.191,1,0
2016-09-12 12:11:16.913,145,6B5B5B79-A063-42A5-9845-86B7C35C751C,,,,,,,,,,,,,,,,,262925.456879,0.8864288330078125,-0.6498565673828125,0.017303466796875,262925.4382884167,-0.0550022659934065,0.08525444439616162,0.2347989290873811,,,,,,,,,,,,,,,,,,,,,,,,,,,,,,,,,0.0.0.0,10.56.9.191,1,0
2016-09-12 12:11:16.932,146,6B5B5B79-A063-42A5-9845-86B7C35C751C,,,,,,,,,,1473675076.924407,21.608642578125,-48.86040496826172,-4.009567260742188,126.4146194458008,122.7938232421875,10,262925.476471,0.9039154052734375,-0.6679229736328125,0.0059051513671875,262925.4582774167,-0.05349598208085769,0.07548543688553296,0.3180040710247267,,,,,,,,,,,,,,,,,,,,,,,,,,,,,,,,,0.0.0.0,10.56.9.191,1,0
2016-09-12 12:11:16.952,147,6B5B5B79-A063-42A5-9845-86B7C35C751C,,,,,,,,,,,,,,,,,262925.496094,0.9015960693359375,-0.6683349609375,0.0002288818359375,262925.4782964167,-0.05966652632657128,0.02247734591637778,0.4310989351404677,,,,,,,,,,,,,,,,,,,,,,,,,,,,,,,,,0.0.0.0,10.56.9.191,1,0
2016-09-12 12:11:16.971,148,6B5B5B79-A063-42A5-9845-86B7C35C751C,,,,,,,,,,1473675076.954381,21.00856018066406,-48.85784149169922,-3.941497802734375,125.7544937133789,122.1336975097656,10,262925.515686,0.896453857421875,-0.6595916748046875,0.0213623046875,262925.4983164167,-0.008317584716535476,-0.05711521800227538,0.5416872320382261,,,,,,,,,,,,,,,,,,,,,,,,,,,,,,,,,0.0.0.0,10.56.9.191,1,0
2016-09-12 12:11:16.991,149,6B5B5B79-A063-42A5-9845-86B7C35C751C,,,,,,,,,,,,,,,,,262925.535279,0.8920135498046875,-0.6504974365234375,0.031768798828125,262925.5183054167,0.000569916473276957,-0.05191699387054971,0.6345260929028244,,,,,,,,,,,,,,,,,,,,,,,,,,,,,,,,,0.0.0.0,10.56.9.191,1,0
2016-09-12 12:11:17.011,150,6B5B5B79-A063-42A5-9845-86B7C35C751C,,,,,,,,,,1473675076.9994,19.12509155273438,-49.75032806396484,-3.95556640625,124.1464614868164,120.5256652832031,10,262925.554871,0.881134033203125,-0.6559295654296875,0.0248870849609375,262925.5383244167,-0.04582075181924933,-0.00329406395231901,0.7149226651545724,,,,,,,,,,,,,,,,,,,,,,,,,,,,,,,,,0.0.0.0,10.56.9.191,1,0
2016-09-12 12:11:17.030,151,6B5B5B79-A063-42A5-9845-86B7C35C751C,,,,,,,,,,1473675077.029244,18.8223876953125,-50.04932403564453,-4.031509399414062,122.9679946899414,119.3471984863281,10,262925.574494,0.857940673828125,-0.6735076904296875,-0.0182037353515625,262925.5583134167,-0.1125212192169379,0.05181046742694654,0.8057447141256536,,,,,,,,,,,,,,,,,,,,,,,,,,,,,,,,,0.0.0.0,10.56.9.191,1,0
2016-09-12 12:11:17.050,152,6B5B5B79-A063-42A5-9845-86B7C35C751C,,,,,,,,,,,,,,,,,262925.594086,0.839019775390625,-0.6711883544921875,-0.05413818359375,262925.5783334167,-0.1963293008250775,0.0177995034616536,0.9062241841576892,,,,,,,,,,,,,,,,,,,,,,,,,,,,,,,,,0.0.0.0,10.56.9.191,1,0
2016-09-12 12:11:17.069,153,6B5B5B79-A063-42A5-9845-86B7C35C751C,1473675077.000042,51.03069853042348,13.72821955942896,136.7018,0,-1,3,100,-9999,1473675077.049972,18.14886474609375,-49.89664459228516,-4.040557861328125,121.5156784057617,117.8948822021484,10,262925.613678,0.8253631591796875,-0.6586761474609375,-0.033447265625,262925.5983224167,-0.1234220701908502,-0.04516028786890967,0.9818145495901713,,,,,,,,,,,,,,,,,,,,,,,,,,,,,,,,,0.0.0.0,10.56.9.191,1,0
2016-09-12 12:11:17.089,154,6B5B5B79-A063-42A5-9845-86B7C35C751C,,,,,,,,,,1473675077.074379,17.09295654296875,-50.56800079345703,-4.271987915039062,120.0352554321289,116.4144592285156,10,262925.633271,0.7877197265625,-0.6610107421875,1.52587890625e-05,262925.6183424167,-0.03242238837506068,0.003408047246974401,1.058358060376793,,,,,,,,,,,,,,,,,,,,,,,,,,,,,,,,,0.0.0.0,10.56.9.191,1,0
2016-09-12 12:11:17.109,155,6B5B5B79-A063-42A5-9845-86B7C35C751C,,,,,,,,,,1473675077.104337,15.1363525390625,-51.23484039306641,-4.138824462890625,118.4677810668945,114.8469848632812,10,262925.652893,0.7498626708984375,-0.6713409423828125,0.0460662841796875,262925.6383314167,0.01180898890562936,0.09859821303800363,1.123608170244824,,,,,,,,,,,,,,,,,,,,,,,,,,,,,,,,,0.0.0.0,10.56.9.191,1,0
2016-09-12 12:11:17.131,156,6B5B5B79-A063-42A5-9845-86B7C35C751C,,,,,,,,,,,,,,,,,262925.672486,0.7270660400390625,-0.6826629638671875,0.03570556640625,262925.6583504167,-0.06097626895067226,0.1373567942785808,1.173895043212136,,,,,,,,,,,,,,,,,,,,,,,,,,,,,,,,,0.0.0.0,10.56.9.191,1,0
2016-09-12 12:11:17.148,157,6B5B5B79-A063-42A5-9845-86B7C35C751C,,,,,,,,,,,,,,,,,262925.692078,0.6955718994140625,-0.70367431640625,0.00628662109375,262925.6783704167,-0.1133159064862175,0.1195309255221355,1.195771047354374,,,,,,,,,,,,,,,,,,,,,,,,,,,,,,,,,0.0.0.0,10.56.9.191,1,0
2016-09-12 12:11:17.167,158,6B5B5B79-A063-42A5-9845-86B7C35C751C,,,,,,,,,,1473675077.149372,13.33345031738281,-51.52748870849609,-4.082061767578125,114.7616348266602,111.1408386230469,10,262925.71167,0.6588287353515625,-0.7309112548828125,0.0143890380859375,262925.6983594167,-0.1902082913756394,0.06674414323956587,1.226008844687243,,,,,,,,,,,,,,,,,,,,,,,,,,,,,,,,,0.0.0.0,10.56.9.191,1,0
2016-09-12 12:11:17.187,159,6B5B5B79-A063-42A5-9845-86B7C35C751C,,,,,,,,,,1473675077.179423,11.97972106933594,-51.97266387939453,-4.31884765625,112.774787902832,109.1539916992188,10,262925.731263,0.61773681640625,-0.75775146484375,0.0121002197265625,262925.7183784167,-0.2446614135522715,0.06376539756031224,1.245688806194601,,,,,,,,,,,,,,,,,,,,,,,,,,,,,,,,,0.0.0.0,10.56.9.191,1,0
2016-09-12 12:11:17.211,160,6B5B5B79-A063-42A5-9845-86B7C35C751C,,,,,,,,,,,,,,,,,262925.750885,0.587738037109375,-0.766998291015625,0.0063018798828125,262925.7383674167,-0.2064908582803838,0.07141825726876394,1.267401824878126,,,,,,,,,,,,,,,,,,,,,,,,,,,,,,,,,0.0.0.0,10.56.9.191,1,0
2016-09-12 12:11:17.226,161,6B5B5B79-A063-42A5-9845-86B7C35C751C,,,,,,,,,,1473675077.224542,8.67193603515625,-52.86026763916016,-4.64935302734375,108.6535110473633,105.03271484375,10,262925.770478,0.578765869140625,-0.790771484375,-0.01837158203125,262925.7583874167,-0.1173010607414121,0.1376050008921762,1.30123009599264,,,,,,,,,,,,,,,,,,,,,,,,,,,,,,,,,0.0.0.0,10.56.9.191,1,0
2016-09-12 12:11:17.246,162,6B5B5B79-A063-42A5-9845-86B7C35C751C,,,,,,,,,,,,,,,,,262925.79007,0.559844970703125,-0.8065643310546875,-0.024627685546875,262925.7783764167,-0.06571243463326917,0.2116848213543653,1.379411717165769,,,,,,,,,,,,,,,,,,,,,,,,,,,,,,,,,0.0.0.0,10.56.9.191,1,0
2016-09-12 12:11:17.265,163,6B5B5B79-A063-42A5-9845-86B7C35C751C,,,,,,,,,,1473675077.254368,7.5479736328125,-52.70523834228516,-4.438583374023438,106.4254531860352,102.8046569824219,10,262925.809662,0.5343170166015625,-0.8258056640625,-0.0105438232421875,262925.7983954167,-0.06012299213741087,0.2223353351858103,1.486060399862973,,,,,,,,,,,,,,,,,,,,,,,,,,,,,,,,,0.0.0.0,10.56.9.191,1,0
2016-09-12 12:11:17.291,164,6B5B5B79-A063-42A5-9845-86B7C35C751C,,,,,,,,,,,,,,,,,262925.829255,0.4983367919921875,-0.845855712890625,-0.0099639892578125,262925.8183844167,-0.07798161777526422,0.1799151737624831,1.595801811534087,,,,,,,,,,,,,,,,,,,,,,,,,,,,,,,,,0.0.0.0,10.56.9.191,1,0
2016-09-12 12:11:17.305,165,6B5B5B79-A063-42A5-9845-86B7C35C751C,,,,,,,,,,1473675077.299449,3.794189453125,-53.06476593017578,-4.253707885742188,101.4125137329102,97.79171752929688,10,262925.848877,0.45361328125,-0.8481597900390625,-0.0085296630859375,262925.8384044167,-0.1766480077371739,0.0821145774709582,1.689900347594292,,,,,,,,,,,,,,,,,,,,,,,,,,,,,,,,,0.0.0.0,10.56.9.191,1,0
2016-09-12 12:11:17.324,166,6B5B5B79-A063-42A5-9845-86B7C35C751C,,,,,,,,,,,,,,,,,262925.86847,0.4277191162109375,-0.8659210205078125,-0.0316925048828125,262925.8584234167,-0.2070277515561438,-0.06792392360247097,1.765686189050786,,,,,,,,,,,,,,,,,,,,,,,,,,,,,,,,,0.0.0.0,10.56.9.191,1,0
2016-09-12 12:11:17.344,167,6B5B5B79-A063-42A5-9845-86B7C35C751C,,,,,,,,,,1473675077.329297,1.021957397460938,-52.82932281494141,-4.512588500976562,98.82102203369141,95.20022583007812,10,262925.888062,0.381011962890625,-0.868682861328125,-0.051544189453125,,,,,,,,,,,,,,,,,,,,,,,,,,,,,,,,,,,,,0.0.0.0,10.56.9.191,1,0
2016-09-12 12:11:17.371,168,6B5B5B79-A063-42A5-9845-86B7C35C751C,,,,,,,,,,,,,,,,,262925.907654,0.3291168212890625,-0.871246337890625,-0.0443115234375,262925.8984324167,-0.06791540148698272,-0.1800009275495836,1.816535787956432,,,,,,,,,,,,,,,,,,,,,,,,,,,,,,,,,0.0.0.0,10.56.9.191,1,0
2016-09-12 12:11:17.383,169,6B5B5B79-A063-42A5-9845-86B7C35C751C,,,,,,,,,,1473675077.374455,-1.977706909179688,-52.81758880615234,-4.622177124023438,93.97394561767578,90.3531494140625,10,262925.927277,0.277130126953125,-0.866424560546875,-0.0086822509765625,262925.9184214167,0.07091518613884797,-0.08073426107797012,1.762313828162419,,,,,,,,,,,,,,,,,,,,,,,,,,,,,,,,,0.0.0.0,10.56.9.191,1,0
2016-09-12 12:11:17.403,170,6B5B5B79-A063-42A5-9845-86B7C35C751C,,,,,,,,,,,,,,,,,262925.946869,0.233612060546875,-0.8735198974609375,-0.0183563232421875,,,,,,,,,,,,,,,,,,,,,,,,,,,,,,,,,,,,,0.0.0.0,10.56.9.191,1,0
2016-09-12 12:11:17.423,171,6B5B5B79-A063-42A5-9845-86B7C35C751C,,,,,,,,,,1473675077.404449,-5.879180908203125,-53.02765655517578,-4.8902587890625,91.55896759033203,87.93817138671875,10,262925.966462,0.1998138427734375,-0.8889923095703125,-0.042633056640625,262925.9584294167,-0.08253615587151773,0.1824433125852953,1.635194491430212,,,,,,,,,,,,,,,,,,,,,,,,,,,,,,,,,0.0.0.0,10.56.9.191,1,0
2016-09-12 12:11:17.450,172,6B5B5B79-A063-42A5-9845-86B7C35C751C,,,,,,,,,,1473675077.449534,-8.122344970703125,-52.26819610595703,-4.697509765625,86.43918609619141,82.81838989257812,10,262925.986054,0.1656341552734375,-0.90557861328125,-0.06976318359375,262925.9784494167,-0.07345104812882142,0.1912266841764856,1.55956923858745,,,,,,,,,,,,,,,,,,,,,,,,,,,,,,,,,0.0.0.0,10.56.9.191,1,0
2016-09-12 12:11:17.461,173,6B5B5B79-A063-42A5-9845-86B7C35C751C,,,,,,,,,,,,,,,,,262926.005677,0.139129638671875,-0.91558837890625,-0.0453643798828125,,,,,,,,,,,,,,,,,,,,,,,,,,,,,,,,,,,,,0.0.0.0,10.56.9.191,1,0
2016-09-12 12:11:17.481,174,6B5B5B79-A063-42A5-9845-86B7C35C751C,,,,,,,,,,1473675077.47944,-9.618804931640625,-51.96302032470703,-5.017318725585938,84.17295074462891,80.55215454101562,10,262926.025269,0.0878143310546875,-0.9043731689453125,-0.004241943359375,262926.0184584167,0.02129783186958168,0.1352297275159345,1.278205204156142,,,,,,,,,,,,,,,,,,,,,,,,,,,,,,,,,0.0.0.0,10.56.9.191,1,0
2016-09-12 12:11:17.500,175,6B5B5B79-A063-42A5-9845-86B7C35C751C,,,,,,,,,,,,,,,,,262926.044861,0.0486297607421875,-0.9126739501953125,0.0088043212890625,262926.0384474167,0.006333529704426444,0.2039504689165572,1.143516098341494,,,,,,,,,,,,,,,,,,,,,,,,,,,,,,,,,0.0.0.0,10.56.9.191,1,0
2016-09-12 12:11:17.531,176,6B5B5B79-A063-42A5-9845-86B7C35C751C,,,,,,,,,,1473675077.524581,-12.76235961914062,-51.19942474365234,-4.609954833984375,80.32129669189453,76.70050048828125,10,262926.064454,0.016937255859375,-0.94989013671875,-0.000701904296875,,,,,,,,,,,,,,,,,,,,,,,,,,,,,,,,,,,,,0.0.0.0,10.56.9.191,1,0
2016-09-12 12:11:17.540,177,6B5B5B79-A063-42A5-9845-86B7C35C751C,,,,,,,,,,,,,,,,,262926.084076,-0.025909423828125,-0.9743804931640625,0.0017242431640625,262926.0784864167,0.0180013710722816,0.2064109634476814,0.8653619719720584,,,,,,,,,,,,,,,,,,,,,,,,,,,,,,,,,0.0.0.0,10.56.9.191,1,0
2016-09-12 12:11:17.559,178,6B5B5B79-A063-42A5-9845-86B7C35C751C,,,,,,,,,,1473675077.55439,-13.20831298828125,-50.82323455810547,-4.843292236328125,78.72043609619141,75.09963989257812,10,262926.103669,-0.039215087890625,-0.984405517578125,0.0148468017578125,262926.0984754167,0.01130724935625843,0.2287391723430148,0.7639413408107889,,,,,,,,,,,,,,,,,,,,,,,,,,,,,,,,,0.0.0.0,10.56.9.191,1,0
2016-09-12 12:11:17.579,179,6B5B5B79-A063-42A5-9845-86B7C35C751C,,,,,,,,,,,,,,,,,262926.123261,-0.0414276123046875,-0.9949951171875,0.0145416259765625,,,,,,,,,,,,,,,,,,,,,,,,,,,,,,,,,,,,,0.0.0.0,10.56.9.191,1,0
2016-09-12 12:11:17.611,180,6B5B5B79-A063-42A5-9845-86B7C35C751C,,,,,,,,,,,,,,,,,262926.142884,-0.04248046875,-1.007659912109375,-0.0503387451171875,262926.1184944167,-0.08005195920669182,0.3675862715676039,0.7348550943332705,,,,,,,,,,,,,,,,,,,,,,,,,,,,,,,,,0.0.0.0,10.56.9.191,1,0
2016-09-12 12:11:17.619,181,6B5B5B79-A063-42A5-9845-86B7C35C751C,,,,,,,,,,1473675077.611341,-14.70338439941406,-50.29210662841797,-4.789993286132812,75.69367218017578,72.0728759765625,10,262926.162476,-0.050018310546875,-1.007553100585938,-0.0537872314453125,262926.1585034167,0.00410979019421028,0.3176035315967788,0.7295010752777752,,,,,,,,,,,,,,,,,,,,,,,,,,,,,,,,,0.0.0.0,10.56.9.191,1,0
2016-09-12 12:11:17.638,182,6B5B5B79-A063-42A5-9845-86B7C35C751C,,,,,,,,,,,,,,,,,262926.182068,-0.0912933349609375,-1.01409912109375,-0.0438385009765625,,,,,,,,,,,,,,,,,,,,,,,,,,,,,,,,,,,,,0.0.0.0,10.56.9.191,1,0
2016-09-12 12:11:17.657,183,6B5B5B79-A063-42A5-9845-86B7C35C751C,,,,,,,,,,1473675077.644695,-16.19796752929688,-49.83750152587891,-5.336044311523438,72.78113555908203,69.16033935546875,10,262926.201661,-0.1289825439453125,-1.011032104492188,-0.0319366455078125,262926.1784924167,0.02781352179256955,0.2354420824906352,0.6926663616086712,,,,,,,,,,,,,,,,,,,,,,,,,,,,,,,,,0.0.0.0,10.56.9.191,1,0
2016-09-12 12:11:17.691,184,6B5B5B79-A063-42A5-9845-86B7C35C751C,,,,,,,,,,1473675077.674484,-16.79238891601562,-49.23496246337891,-5.27301025390625,71.63488006591797,68.01408386230469,10,262926.221283,-0.1528778076171875,-1.002105712890625,-0.005859375,262926.2185004167,0.0733391953630381,0.1037048244282306,0.5858352523767966,,,,,,,,,,,,,,,,,,,,,,,,,,,,,,,,,0.0.0.0,10.56.9.191,1,0
2016-09-12 12:11:17.697,185,6B5B5B79-A063-42A5-9845-86B7C35C751C,,,,,,,,,,,,,,,,,262926.240876,-0.1697998046875,-0.9888153076171875,0.004364013671875,,,,,,,,,,,,,,,,,,,,,,,,,,,,,,,,,,,,,0.0.0.0,10.56.9.191,1,0
2016-09-12 12:11:17.716,186,6B5B5B79-A063-42A5-9845-86B7C35C751C,,,,,,,,,,1473675077.704486,-18.81382751464844,-48.85175323486328,-5.224502563476562,70.6710205078125,67.05022430419922,10,262926.260468,-0.1755218505859375,-0.991546630859375,-0.0170440673828125,262926.2385204167,0.0160753729719363,0.08002266443470095,0.5543654767236573,,,,,,,,,,,,,,,,,,,,,,,,,,,,,,,,,0.0.0.0,10.56.9.191,1,0
2016-09-12 12:11:17.736,187,6B5B5B79-A063-42A5-9845-86B7C35C751C,,,,,,,,,,,,,,,,,262926.28006,-0.17987060546875,-0.9829864501953125,-0.03167724609375,262926.2785284167,0.06692470556147324,0.02900262321928993,0.4473689851880888,,,,,,,,,,,,,,,,,,,,,,,,,,,,,,,,,0.0.0.0,10.56.9.191,1,0
2016-09-12 12:11:17.755,188,6B5B5B79-A063-42A5-9845-86B7C35C751C,,,,,,,,,,1473675077.74948,-19.03453063964844,-48.40088653564453,-5.230865478515625,69.09348297119141,65.47268676757812,10,262926.299683,-0.1801910400390625,-0.978485107421875,-0.0245361328125,,,,,,,,,,,,,,,,,,,,,,,,,,,,,,,,,,,,,0.0.0.0,10.56.9.191,1,0
2016-09-12 12:11:17.775,189,6B5B5B79-A063-42A5-9845-86B7C35C751C,,,,,,,,,,,,,,,,,262926.319275,-0.189361572265625,-0.9655609130859375,-0.0114288330078125,262926.2985484167,0.06442559519454288,0.06628714479650827,0.3544816547916511,,,,,,,,,,,,,,,,,,,,,,,,,,,,,,,,,0.0.0.0,10.56.9.191,1,0
2016-09-12 12:11:17.794,190,6B5B5B79-A063-42A5-9845-86B7C35C751C,,,,,,,,,,1473675077.779401,-19.63150024414062,-48.09871673583984,-5.3153076171875,68.48934936523438,64.86855316162109,10,262926.338868,-0.191009521484375,-0.972198486328125,-0.011993408203125,262926.3385564167,0.004526841220916689,0.08963374649268792,0.2482212609813804,,,,,,,,,,,,,,,,,,,,,,,,,,,,,,,,,0.0.0.0,10.56.9.191,1,0
2016-09-12 12:11:17.814,191,6B5B5B79-A063-42A5-9845-86B7C35C751C,,,,,,,,,,,,,,,,,262926.35846,-0.179351806640625,-0.96875,0.00506591796875,,,,,,,,,,,,,,,,,,,,,,,,,,,,,,,,,,,,,0.0.0.0,10.56.9.191,1,0
2016-09-12 12:11:17.834,192,6B5B5B79-A063-42A5-9845-86B7C35C751C,,,,,,,,,,1473675077.824508,-19.40650939941406,-48.09960174560547,-5.312713623046875,67.50784301757812,63.88704681396484,10,262926.378083,-0.157745361328125,-0.9806671142578125,-0.005950927734375,262926.3585454167,-0.03902329945293108,0.06612628986666748,0.233957370182916,,,,,,,,,,,,,,,,,,,,,,,,,,,,,,,,,0.0.0.0,10.56.9.191,1,0
2016-09-12 12:11:17.853,193,6B5B5B79-A063-42A5-9845-86B7C35C751C,,,,,,,,,,,,,,,,,262926.397675,-0.1323394775390625,-0.985137939453125,-0.0225982666015625,262926.3785654167,-0.03150626096007342,0.06072859496929488,0.2255236716428531,,,,,,,,,,,,,,,,,,,,,,,,,,,,,,,,,0.0.0.0,10.56.9.191,1,0
2016-09-12 12:11:17.873,194,6B5B5B79-A063-42A5-9845-86B7C35C751C,,,,,,,,,,1473675077.854504,-19.85478210449219,-47.87226104736328,-5.094802856445312,67.10024261474609,63.47944641113281,10,262926.417267,-0.126922607421875,-0.9712677001953125,-0.0116119384765625,262926.3985544167,-0.008082161276172473,0.04798377125661168,0.2258107604083636,,,,,,,,,,,,,,,,,,,,,,,,,,,,,,,,,0.0.0.0,10.56.9.191,1,0
2016-09-12 12:11:17.892,195,6B5B5B79-A063-42A5-9845-86B7C35C751C,,,,,,,,,,,,,,,,,262926.43686,-0.113525390625,-0.967742919921875,-0.014495849609375,262926.4185734167,0.01236345904458386,0.04556482203849271,0.1972504882461359,,,,,,,,,,,,,,,,,,,,,,,,,,,,,,,,,0.0.0.0,10.56.9.191,1,0
2016-09-12 12:11:17.912,196,6B5B5B79-A063-42A5-9845-86B7C35C751C,,,,,,,,,,1473675077.89955,-21.05043029785156,-47.41753387451172,-5.112411499023438,66.36557006835938,62.74477005004883,10,262926.456452,-0.1005859375,-0.969390869140625,-0.0062713623046875,262926.4385934167,-0.01525565198840991,0.04866367628290891,0.188415451329798,,,,,,,,,,,,,,,,,,,,,,,,,,,,,,,,,0.0.0.0,10.56.9.191,1,0
2016-09-12 12:11:17.932,197,6B5B5B79-A063-42A5-9845-86B7C35C751C,,,,,,,,,,,,,,,,,262926.476075,-0.0742950439453125,-0.985748291015625,-0.0147552490234375,262926.4585824167,-0.0003254382852076829,0.1017343515376809,0.1852311096143903,,,,,,,,,,,,,,,,,,,,,,,,,,,,,,,,,0.0.0.0,10.56.9.191,1,0
2016-09-12 12:11:17.951,198,6B5B5B79-A063-42A5-9845-86B7C35C751C,,,,,,,,,,1473675077.932277,-21.42195129394531,-47.11681365966797,-5.419235229492188,65.99846649169922,62.37767028808594,10,262926.495667,-0.0575408935546875,-0.9885101318359375,-0.0013885498046875,262926.4786024167,-0.006977482056007604,0.09041192216320906,0.2203747159912939,,,,,,,,,,,,,,,,,,,,,,,,,,,,,,,,,0.0.0.0,10.56.9.191,1,0
2016-09-12 12:11:17.971,199,6B5B5B79-A063-42A5-9845-86B7C35C751C,,,,,,,,,,,,,,,,,262926.515259,-0.0429840087890625,-0.9898681640625,0.009063720703125,262926.4985914167,-0.0542491240371321,0.07187339149905848,0.2764249358736466,,,,,,,,,,,,,,,,,,,,,,,,,,,,,,,,,0.0.0.0,10.56.9.191,1,0
2016-09-12 12:11:17.990,200,6B5B5B79-A063-42A5-9845-86B7C35C751C,,,,,,,,,,1473675077.974602,-20.74942016601562,-47.42003631591797,-5.633926391601562,65.05853271484375,61.4377326965332,10,262926.534851,-0.0387420654296875,-0.9865875244140625,0.001190185546875,262926.5186104167,-0.03992611106246794,0.0790428874696608,0.3543903083662613,,,,,,,,,,,,,,,,,,,,,,,,,,,,,,,,,0.0.0.0,10.56.9.191,1,0
2016-09-12 12:11:18.012,201,6B5B5B79-A063-42A5-9845-86B7C35C751C,,,,,,,,,,,,,,,,,262926.554474,-0.0430908203125,-0.9799957275390625,-0.0195159912109375,262926.5385994167,-0.04704953434621188,0.06093019626381388,0.452452160760723,,,,,,,,,,,,,,,,,,,,,,,,,,,,,,,,,0.0.0.0,10.56.9.191,1,0
2016-09-12 12:11:18.030,202,6B5B5B79-A063-42A5-9845-86B7C35C751C,,,,,,,,,,1473675078.012157,-22.32005310058594,-46.88787078857422,-5.281509399414062,64.41119384765625,60.7903938293457,10,262926.574067,-0.04412841796875,-0.9807891845703125,-0.016815185546875,262926.5586194167,-0.07341003544803421,0.0004330299932468841,0.5600196340340046,,,,,,,,,,,,,,,,,,,,,,,,,,,,,,,,,0.0.0.0,10.56.9.191,1,0
2016-09-12 12:11:18.049,203,6B5B5B79-A063-42A5-9845-86B7C35C751C,,,,,,,,,,,,,,,,,262926.593659,-0.0409698486328125,-0.981170654296875,0.0250244140625,262926.5786084167,-0.05792641687031351,-0.0212043549153199,0.6252827933913773,,,,,,,,,,,,,,,,,,,,,,,,,,,,,,,,,0.0.0.0,10.56.9.191,1,0
2016-09-12 12:11:18.069,204,6B5B5B79-A063-42A5-9845-86B7C35C751C,1473675077.999974,51.0307559464602,13.72822341510442,136.6714,0,-1,4,100,-9999,1473675078.049594,-22.83786010742188,-46.21176910400391,-5.668212890625,62.81441879272461,59.19361877441406,10,262926.613282,-0.0429840087890625,-0.9873199462890625,0.0192413330078125,262926.5986274167,-0.04871134686642133,0.05789099682781546,0.674207992093332,,,,,,,,,,,,,,,,,,,,,,,,,,,,,,,,,0.0.0.0,10.56.9.191,1,0
2016-09-12 12:11:18.091,205,6B5B5B79-A063-42A5-9845-86B7C35C751C,,,,,,,,,,,,,,,,,262926.632874,-0.044097900390625,-0.9813995361328125,0.0030059814453125,262926.6186474167,-0.07586493734086924,0.07030532224921983,0.7453157247789927,,,,,,,,,,,,,,,,,,,,,,,,,,,,,,,,,0.0.0.0,10.56.9.191,1,0
2016-09-12 12:11:18.108,206,6B5B5B79-A063-42A5-9845-86B7C35C751C,,,,,,,,,,1473675078.091464,-23.502685546875,-45.15933990478516,-5.759811401367188,61.79076385498047,58.16996383666992,10,262926.652466,-0.0503387451171875,-0.986968994140625,-0.028472900390625,262926.6386364167,-0.1191732629877378,0.07022596004873546,0.8408062951409829,,,,,,,,,,,,,,,,,,,,,,,,,,,,,,,,,0.0.0.0,10.56.9.191,1,0
2016-09-12 12:11:18.128,207,6B5B5B79-A063-42A5-9845-86B7C35C751C,,,,,,,,,,1473675078.124566,-25.37527465820312,-44.92710113525391,-5.858322143554688,59.29316329956055,55.67236328125,10,262926.672058,-0.08563232421875,-0.9797515869140625,-0.03125,262926.6586554167,-0.1346547510365864,0.04764661506260765,0.9174669850155678,,,,,,,,,,,,,,,,,,,,,,,,,,,,,,,,,0.0.0.0,10.56.9.191,1,0
2016-09-12 12:11:18.147,208,6B5B5B79-A063-42A5-9845-86B7C35C751C,,,,,,,,,,,,,,,,,262926.691651,-0.1101837158203125,-0.9857025146484375,-0.0419769287109375,262926.6786444167,-0.01166517820676508,0.1014597796292938,0.9879430158906617,,,,,,,,,,,,,,,,,,,,,,,,,,,,,,,,,0.0.0.0,10.56.9.191,1,0
2016-09-12 12:11:18.172,209,6B5B5B79-A063-42A5-9845-86B7C35C751C,,,,,,,,,,1473675078.15456,-25.2935791015625,-44.25279998779297,-6.013107299804688,57.79122543334961,54.17042541503906,10,262926.711274,-0.1237030029296875,-0.96600341796875,-0.0708770751953125,262926.6986644167,0.1163764112109366,0.1991890032036046,1.094602351232226,,,,,,,,,,,,,,,,,,,,,,,,,,,,,,,,,0.0.0.0,10.56.9.191,1,0
2016-09-12 12:11:18.186,210,6B5B5B79-A063-42A5-9845-86B7C35C751C,,,,,,,,,,,,,,,,,262926.730866,-0.1630401611328125,-0.946685791015625,-0.049041748046875,262926.7186534167,0.203237008060525,0.1838694353490327,1.155284873514663,,,,,,,,,,,,,,,,,,,,,,,,,,,,,,,,,0.0.0.0,10.56.9.191,1,0
2016-09-12 12:11:18.206,211,6B5B5B79-A063-42A5-9845-86B7C35C751C,,,,,,,,,,1473675078.199671,-27.82615661621094,-42.36704254150391,-5.758255004882812,53.959228515625,50.33842849731445,10,262926.750458,-0.20068359375,-0.9406585693359375,-0.0200347900390625,262926.7386724167,0.192214184308687,0.1026033410013738,1.205500906396979,,,,,,,,,,,,,,,,,,,,,,,,,,,,,,,,,0.0.0.0,10.56.9.191,1,0
2016-09-12 12:11:18.226,212,6B5B5B79-A063-42A5-9845-86B7C35C751C,,,,,,,,,,,,,,,,,262926.77005,-0.241241455078125,-0.933502197265625,-0.029205322265625,262926.7586614167,0.1176270316588378,0.1409142448627087,1.212056277420209,,,,,,,,,,,,,,,,,,,,,,,,,,,,,,,,,0.0.0.0,10.56.9.191,1,0
2016-09-12 12:11:18.250,213,6B5B5B79-A063-42A5-9845-86B7C35C751C,,,,,,,,,,1473675078.229458,-29.62062072753906,-41.75955963134766,-5.634063720703125,52.00298690795898,48.38218688964844,10,262926.789643,-0.2918548583984375,-0.9345855712890625,-0.0190582275390625,262926.7786814167,0.1197005688835735,0.167542393654084,1.219468387366117,,,,,,,,,,,,,,,,,,,,,,,,,,,,,,,,,0.0.0.0,10.56.9.191,1,0
2016-09-12 12:11:18.265,214,6B5B5B79-A063-42A5-9845-86B7C35C751C,,,,,,,,,,1473675078.250554,-29.31207275390625,-40.93672943115234,-6.01251220703125,49.98233032226562,46.36153030395508,10,262926.809235,-0.3250885009765625,-0.91583251953125,-0.010406494140625,262926.7987004167,0.1494731119740053,0.150603890172853,1.225166220518342,,,,,,,,,,,,,,,,,,,,,,,,,,,,,,,,,0.0.0.0,10.56.9.191,1,0
2016-09-12 12:11:18.285,215,6B5B5B79-A063-42A5-9845-86B7C35C751C,,,,,,,,,,1473675078.274763,-30.35427856445312,-40.10741424560547,-5.95654296875,47.94548797607422,44.32468795776367,10,262926.828858,-0.3404541015625,-0.925872802734375,-0.038909912109375,262926.8186894167,0.106843892405107,0.1251688375498332,1.23010878118542,,,,,,,,,,,,,,,,,,,,,,,,,,,,,,,,,0.0.0.0,10.56.9.191,1,0
2016-09-12 12:11:18.304,216,6B5B5B79-A063-42A5-9845-86B7C35C751C,,,,,,,,,,,,,,,,,262926.84845,-0.3771820068359375,-0.9219512939453125,-0.0451507568359375,,,,,,,,,,,,,,,,,,,,,,,,,,,,,,,,,,,,,0.0.0.0,10.56.9.191,1,0
2016-09-12 12:11:18.330,217,6B5B5B79-A063-42A5-9845-86B7C35C751C,,,,,,,,,,1473675078.304531,-32.21546936035156,-38.67523956298828,-6.06512451171875,45.9495849609375,42.32878494262695,10,262926.868042,-0.4371337890625,-0.9019775390625,0.0123291015625,262926.8586984167,0.2856368100842307,0.03142583349515303,1.101150265404404,,,,,,,,,,,,,,,,,,,,,,,,,,,,,,,,,0.0.0.0,10.56.9.191,1,0
2016-09-12 12:11:18.343,218,6B5B5B79-A063-42A5-9845-86B7C35C751C,,,,,,,,,,,,,,,,,262926.887635,-0.469696044921875,-0.902099609375,0.0302734375,262926.8787184167,0.2218727441044635,0.02170343130360075,1.084498584372575,,,,,,,,,,,,,,,,,,,,,,,,,,,,,,,,,0.0.0.0,10.56.9.191,1,0
2016-09-12 12:11:18.363,219,6B5B5B79-A063-42A5-9845-86B7C35C751C,,,,,,,,,,1473675078.349633,-33.55247497558594,-37.09235382080078,-5.043960571289062,42.35622024536133,38.73542022705078,10,262926.907227,-0.542755126953125,-0.9140472412109375,0.032989501953125,,,,,,,,,,,,,,,,,,,,,,,,,,,,,,,,,,,,,0.0.0.0,10.56.9.191,1,0
2016-09-12 12:11:18.383,220,6B5B5B79-A063-42A5-9845-86B7C35C751C,,,,,,,,,,1473675078.379656,-34.51585388183594,-35.88874053955078,-5.1402587890625,40.52940368652344,36.90860366821289,10,262926.92685,-0.5571136474609375,-0.86700439453125,0.045684814453125,262926.9187264167,0.2622068514459315,0.08174413176332816,1.24362751951088,,,,,,,,,,,,,,,,,,,,,,,,,,,,,,,,,0.0.0.0,10.56.9.191,1,0
2016-09-12 12:11:18.411,221,6B5B5B79-A063-42A5-9845-86B7C35C751C,,,,,,,,,,,,,,,,,262926.946442,-0.5454254150390625,-0.8538360595703125,-0.005828857421875,262926.9387154167,0.1461430953469703,0.05201712872753669,1.243527384653893,,,,,,,,,,,,,,,,,,,,,,,,,,,,,,,,,0.0.0.0,10.56.9.191,1,0
2016-09-12 12:11:18.422,222,6B5B5B79-A063-42A5-9845-86B7C35C751C,,,,,,,,,,,,,,,,,262926.966034,-0.538177490234375,-0.8462982177734375,-0.044189453125,,,,,,,,,,,,,,,,,,,,,,,,,,,,,,,,,,,,,0.0.0.0,10.56.9.191,1,0
2016-09-12 12:11:18.441,223,6B5B5B79-A063-42A5-9845-86B7C35C751C,,,,,,,,,,1473675078.424755,-36.89932250976562,-34.07837677001953,-4.808059692382812,36.77877044677734,33.1579704284668,10,262926.985627,-0.563507080078125,-0.820281982421875,0.00018310546875,262926.9787244167,0.05605208409511574,0.01455870273113617,0.9036166831343927,,,,,,,,,,,,,,,,,,,,,,,,,,,,,,,,,0.0.0.0,10.56.9.191,1,0
2016-09-12 12:11:18.461,224,6B5B5B79-A063-42A5-9845-86B7C35C751C,,,,,,,,,,1473675078.454701,-36.81546020507812,-33.17910003662109,-4.964736938476562,35.41481018066406,31.79401016235352,10,262927.005219,-0.6167755126953125,-0.82135009765625,0.030120849609375,262926.9987434167,0.1101834964120663,0.2087564094197142,0.7842511399159512,,,,,,,,,,,,,,,,,,,,,,,,,,,,,,,,,0.0.0.0,10.56.9.191,1,0
2016-09-12 12:11:18.491,225,6B5B5B79-A063-42A5-9845-86B7C35C751C,,,,,,,,,,,,,,,,,262927.024811,-0.6303558349609375,-0.7991943359375,-0.0015106201171875,,,,,,,,,,,,,,,,,,,,,,,,,,,262927.012996125,unknown,2,2016-09-12 12:11:18.461,,,,,,,0.0.0.0,10.56.9.191,1,0
2016-09-12 12:11:18.500,226,6B5B5B79-A063-42A5-9845-86B7C35C751C,,,,,,,,,,,,,,,,,262927.044403,-0.6474151611328125,-0.804412841796875,-0.0077056884765625,262927.0387524167,0.1034595472918343,0.2198356921866619,0.8289277977309024,,,,,,,,,,,,,,,,,,,,,,,,,,,,,,,,,0.0.0.0,10.56.9.191,1,0
2016-09-12 12:11:18.520,227,6B5B5B79-A063-42A5-9845-86B7C35C751C,,,,,,,,,,1473675078.499826,-37.47354125976562,-31.52800750732422,-5.586334228515625,32.25494384765625,28.63414573669434,10,262927.064026,-0.65167236328125,-0.7869873046875,-0.02020263671875,262927.0587714167,0.1238332622631585,-0.002333195431018421,0.8105684978081142,,,,,,,,,,,,,,,,,,,,,,,,,,,,,,,,,0.0.0.0,10.56.9.191,1,0
2016-09-12 12:11:18.539,228,6B5B5B79-A063-42A5-9845-86B7C35C751C,,,,,,,,,,1473675078.529637,-38.817626953125,-30.84694671630859,-5.307586669921875,30.85310173034668,27.23230361938477,10,262927.083619,-0.6588287353515625,-0.7628173828125,0.0067596435546875,,,,,,,,,,,,,,,,,,,,,,,,,,,,,,,,,,,,,0.0.0.0,10.56.9.191,1,0
2016-09-12 12:11:18.572,229,6B5B5B79-A063-42A5-9845-86B7C35C751C,,,,,,,,,,,,,,,,,262927.103211,-0.658111572265625,-0.7632598876953125,0.028289794921875,262927.0787604167,0.1820558226466888,-0.072361282610761,0.7143655318545278,,,,,,,,,,,,,,,,,,,,,,,,,,,,,,,,,0.0.0.0,10.56.9.191,1,0
2016-09-12 12:11:18.579,230,6B5B5B79-A063-42A5-9845-86B7C35C751C,,,,,,,,,,1473675078.575239,-39.33030700683594,-29.57013702392578,-5.399337768554688,28.74719047546387,25.12639236450195,10,262927.122803,-0.6761627197265625,-0.72650146484375,0.0667572021484375,262927.1187694167,0.1578583409822288,0.09319918656008599,0.3905962497019976,,,,,,,,,,,,,,,,,,,,,,,,,,,,,,,,,0.0.0.0,10.56.9.191,1,0
2016-09-12 12:11:18.598,231,6B5B5B79-A063-42A5-9845-86B7C35C751C,,,,,,,,,,,,,,,,,262927.142395,-0.6819000244140625,-0.72833251953125,0.0713043212890625,,,,,,,,,,,,,,,,,,,,,,,,,,,,,,,,,,,,,0.0.0.0,10.56.9.191,1,0
2016-09-12 12:11:18.618,232,6B5B5B79-A063-42A5-9845-86B7C35C751C,,,,,,,,,,1473675078.605143,-39.10232543945312,-29.27121734619141,-5.474258422851562,27.94503974914551,24.32424163818359,10,262927.162018,-0.6899261474609375,-0.7382659912109375,0.0640716552734375,262927.1387884167,0.1199434491749887,0.1075003616138115,0.3347076836978127,,,,,,,,,,,,,,,,,,,,,,,,,,,,,,,,,0.0.0.0,10.56.9.191,1,0
2016-09-12 12:11:18.638,233,6B5B5B79-A063-42A5-9845-86B7C35C751C,,,,,,,,,,,,,,,,,262927.18161,-0.6867523193359375,-0.74359130859375,0.0196075439453125,262927.1787974167,0.004680771931923269,-0.1332179756284887,0.3703820580799692,,,,,,,,,,,,,,,,,,,,,,,,,,,,,,,,,0.0.0.0,10.56.9.191,1,0
2016-09-12 12:11:18.657,234,6B5B5B79-A063-42A5-9845-86B7C35C751C,,,,,,,,,,1473675078.649896,-40.146728515625,-28.59096527099609,-5.04205322265625,26.90996551513672,23.2891674041748,10,262927.201203,-0.69219970703125,-0.7343597412109375,0.048828125,,,,,,,,,,,,,,,,,,,,,,,,,,,,,,,,,,,,,0.0.0.0,10.56.9.191,1,0
2016-09-12 12:11:18.676,235,6B5B5B79-A063-42A5-9845-86B7C35C751C,,,,,,,,,,,,,,,,,262927.220795,-0.702117919921875,-0.7332916259765625,0.0750732421875,262927.1988164167,0.006097040999627408,-0.1910501165962134,0.3236449125296236,,,,,,,,,,,,,,,,,,,,,,,,,,,,,,,,,0.0.0.0,10.56.9.191,1,0
2016-09-12 12:11:18.696,236,6B5B5B79-A063-42A5-9845-86B7C35C751C,,,,,,,,,,1473675078.679779,-40.06575012207031,-27.91573333740234,-4.821853637695312,26.63621139526367,23.01541328430176,10,262927.240387,-0.712432861328125,-0.717987060546875,0.091766357421875,262927.2388254167,0.116121813010725,0.04915795898122762,0.1343857717664884,,,,,,,,,,,,,,,,,,,,,,,,,,,,,,,,,0.0.0.0,10.56.9.191,1,0
2016-09-12 12:11:18.716,237,6B5B5B79-A063-42A5-9845-86B7C35C751C,,,,,,,,,,,,,,,,,262927.26001,-0.7186126708984375,-0.729705810546875,0.08203125,,,,,,,,,,,,,,,,,,,,,,,,,,,,,,,,,,,,,0.0.0.0,10.56.9.191,1,0
2016-09-12 12:11:18.735,238,6B5B5B79-A063-42A5-9845-86B7C35C751C,,,,,,,,,,1473675078.72491,-40.29148864746094,-27.91390228271484,-4.449462890625,25.93659591674805,22.31579780578613,10,262927.279602,-0.6852264404296875,-0.72698974609375,0.042724609375,262927.2588144167,0.05994669087324762,0.1412085241631624,0.09940994453825978,,,,,,,,,,,,,,,,,,,,,,,,,,,,,,,,,0.0.0.0,10.56.9.191,1,0
2016-09-12 12:11:18.755,239,6B5B5B79-A063-42A5-9845-86B7C35C751C,,,,,,,,,,,,,,,,,262927.299195,-0.671783447265625,-0.741119384765625,0.025146484375,262927.2988234167,0.005102084016373805,0.08672344405344933,0.1714705562619508,,,,,,,,,,,,,,,,,,,,,,,,,,,,,,,,,0.0.0.0,10.56.9.191,1,0
2016-09-12 12:11:18.774,240,6B5B5B79-A063-42A5-9845-86B7C35C751C,,,,,,,,,,1473675078.754861,-39.913330078125,-27.69173431396484,-4.972015380859375,25.57331085205078,21.95251274108887,10,262927.318787,-0.6733245849609375,-0.7394866943359375,0.02752685546875,,,,,,,,,,,,,,,,,,,,,,,,,,,,,,,,,,,,,0.0.0.0,10.56.9.191,1,0
2016-09-12 12:11:18.794,241,6B5B5B79-A063-42A5-9845-86B7C35C751C,,,,,,,,,,,,,,,,,262927.338379,-0.6835784912109375,-0.724853515625,0.060394287109375,262927.3188424167,-0.0195305581702051,0.06355447520197796,0.1904607590469789,,,,,,,,,,,,,,,,,,,,,,,,,,,,,,,,,0.0.0.0,10.56.9.191,1,0
2016-09-12 12:11:18.814,242,6B5B5B79-A063-42A5-9845-86B7C35C751C,,,,,,,,,,1473675078.799986,-39.91531372070312,-27.91689300537109,-5.045120239257812,24.86545753479004,21.24465942382812,10,262927.357972,-0.6949920654296875,-0.727142333984375,0.0550537109375,262927.3388314167,0.02115295590628137,0.08342804852058527,0.160990484740271,,,,,,,,,,,,,,,,,,,,,,,,,,,,,,,,,0.0.0.0,10.56.9.191,1,0
2016-09-12 12:11:18.833,243,6B5B5B79-A063-42A5-9845-86B7C35C751C,,,,,,,,,,1473675078.82976,-40.13330078125,-27.24179840087891,-5.353363037109375,24.53734970092773,20.91655158996582,10,262927.377594,-0.6833953857421875,-0.7363739013671875,0.0326080322265625,262927.3588514167,0.007583084887891623,0.1000499021482058,0.1245485873319537,,,,,,,,,,,,,,,,,,,,,,,,,,,,,,,,,0.0.0.0,10.56.9.191,1,0
2016-09-12 12:11:18.853,244,6B5B5B79-A063-42A5-9845-86B7C35C751C,,,,,,,,,,,,,,,,,262927.397187,-0.66534423828125,-0.7364654541015625,0.0140380859375,262927.3788704167,0.01710175525605283,0.1585510291817585,0.1330190374950598,,,,,,,,,,,,,,,,,,,,,,,,,,,,,,,,,0.0.0.0,10.56.9.191,1,0
2016-09-12 12:11:18.872,245,6B5B5B79-A063-42A5-9845-86B7C35C751C,,,,,,,,,,,,,,,,,262927.416779,-0.677490234375,-0.7404632568359375,0.0255126953125,262927.3988594167,0.02525209345613134,0.1261291734389158,0.1822403797102313,,,,,,,,,,,,,,,,,,,,,,,,,,,,,,,,,0.0.0.0,10.56.9.191,1,0
2016-09-12 12:11:18.892,246,6B5B5B79-A063-42A5-9845-86B7C35C751C,,,,,,,,,,1473675078.874851,-40.35655212402344,-27.09130096435547,-5.507217407226562,23.72493934631348,20.10414123535156,10,262927.436371,-0.688751220703125,-0.7386627197265625,0.0439300537109375,262927.4188794167,0.004678641403051206,0.05862629560478633,0.2280510115173383,,,,,,,,,,,,,,,,,,,,,,,,,,,,,,,,,0.0.0.0,10.56.9.191,1,0
2016-09-12 12:11:18.912,247,6B5B5B79-A063-42A5-9845-86B7C35C751C,,,,,,,,,,1473675078.904794,-40.28083801269531,-27.01659393310547,-5.506973266601562,23.36647796630859,19.74567985534668,10,262927.455964,-0.6936492919921875,-0.7390899658203125,0.0546875,262927.4388684167,-0.05911738250979694,-0.03601792216277665,0.2158979421988707,,,,,,,,,,,,,,,,,,,,,,,,,,,,,,,,,0.0.0.0,10.56.9.191,1,0
2016-09-12 12:11:18.931,248,6B5B5B79-A063-42A5-9845-86B7C35C751C,,,,,,,,,,,,,,,,,262927.475586,-0.70245361328125,-0.7356109619140625,0.067718505859375,262927.4588874167,-0.01402314103592124,-0.05140007430296533,0.1663149427076664,,,,,,,,,,,,,,,,,,,,,,,,,,,,,,,,,0.0.0.0,10.56.9.191,1,0
2016-09-12 12:11:18.951,249,6B5B5B79-A063-42A5-9845-86B7C35C751C,,,,,,,,,,1473675078.949823,-41.33122253417969,-27.01184844970703,-5.294097900390625,22.90784454345703,19.28704643249512,10,262927.495179,-0.7032623291015625,-0.7359161376953125,0.02825927734375,262927.4788764167,0.02675624683980809,0.0798596789759881,0.1237443126827498,,,,,,,,,,,,,,,,,,,,,,,,,,,,,,,,,0.0.0.0,10.56.9.191,1,0
2016-09-12 12:11:18.971,250,6B5B5B79-A063-42A5-9845-86B7C35C751C,,,,,,,,,,,,,,,,,262927.514771,-0.6845245361328125,-0.7270660400390625,0.02764892578125,262927.4988964167,0.04372005035139482,0.1479303427545224,0.1333346220842342,,,,,,,,,,,,,,,,,,,,,,,,,,,,,,,,,0.0.0.0,10.56.9.191,1,0
2016-09-12 12:11:18.990,251,6B5B5B79-A063-42A5-9845-86B7C35C751C,,,,,,,,,,1473675078.979842,-40.65040588378906,-26.41475677490234,-5.366348266601562,22.50142097473145,18.88062286376953,10,262927.534363,-0.6744842529296875,-0.740386962890625,0.0167083740234375,262927.5188854167,0.04782717738451502,0.1438895284325452,0.1536473506665955,,,,,,,,,,,,,,,,,,,,,,,,,,,,,,,,,0.0.0.0,10.56.9.191,1,0
2016-09-12 12:11:19.010,252,6B5B5B79-A063-42A5-9845-86B7C35C751C,,,,,,,,,,,,,,,,,262927.553955,-0.6824493408203125,-0.7371368408203125,0.02099609375,262927.5389044167,-0.02591894899308718,0.07948550484283197,0.1903481073328685,,,,,,,,,,,,,,,,,,,,,,,,,,,,,,,,,0.0.0.0,10.56.9.191,1,0
2016-09-12 12:11:19.029,253,6B5B5B79-A063-42A5-9845-86B7C35C751C,,,,,,,,,,1473675079.024909,-40.87307739257812,-26.26500701904297,-5.820175170898438,21.76463508605957,18.14383697509766,10,262927.573548,-0.6940155029296875,-0.7349395751953125,0.0192108154296875,262927.5589244167,-0.06336832024178142,0.04256423843830043,0.2145692911310302,,,,,,,,,,,,,,,,,,,,,,,,,,,,,,,,,0.0.0.0,10.56.9.191,1,0
2016-09-12 12:11:19.051,254,6B5B5B79-A063-42A5-9845-86B7C35C751C,1473675079.000019,51.03073474024518,13.72842944228437,136.6307,0,-1,3,100,-9999,,,,,,,,262927.593171,-0.70172119140625,-0.7281036376953125,0.02996826171875,262927.5789134167,-0.06435315721289273,-0.02976561887159763,0.2040964101442936,,,,,,,,,,,,,,,,,,,,,,,,,,,,,,,,,0.0.0.0,10.56.9.191,1,0
2016-09-12 12:11:19.068,255,6B5B5B79-A063-42A5-9845-86B7C35C751C,,,,,,,,,,1473675079.055181,-40.71781921386719,-25.66507720947266,-5.598495483398438,21.54029083251953,17.91949272155762,10,262927.612763,-0.69708251953125,-0.7312164306640625,0.015106201171875,262927.5989324167,-0.04462872091532986,-0.003978230036360366,0.1296048649775782,,,,,,,,,,,,,,,,,,,,,,,,,,,,,,,,,0.0.0.0,10.56.9.191,1,0
2016-09-12 12:11:19.088,256,6B5B5B79-A063-42A5-9845-86B7C35C751C,,,,,,,,,,,,,,,,,262927.632355,-0.689483642578125,-0.7279815673828125,0.0188140869140625,262927.6189214167,0.03244742208930742,0.07298499493805756,0.07478023182887997,,,,,,,,,,,,,,,,,,,,,,,,,,,,,,,,,0.0.0.0,10.56.9.191,1,0
2016-09-12 12:11:19.108,257,6B5B5B79-A063-42A5-9845-86B7C35C751C,,,,,,,,,,1473675079.100005,-41.24234008789062,-25.66355133056641,-5.82952880859375,21.13269233703613,17.51189422607422,10,262927.651947,-0.6830291748046875,-0.733184814453125,0.0111083984375,262927.6389414167,0.04518425631872039,0.118708541377519,0.08012200034336091,,,,,,,,,,,,,,,,,,,,,,,,,,,,,,,,,0.0.0.0,10.56.9.191,1,0
2016-09-12 12:11:19.130,258,6B5B5B79-A063-42A5-9845-86B7C35C751C,,,,,,,,,,1473675079.129848,-41.31504821777344,-25.43845367431641,-5.90728759765625,20.8941535949707,17.27335548400879,10,262927.67154,-0.68560791015625,-0.7268829345703125,0.01019287109375,262927.6589304167,-0.007227286566257036,0.07867750176810193,0.1116540939660081,,,,,,,,,,,,,,,,,,,,,,,,,,,,,,,,,0.0.0.0,10.56.9.191,1,0
2016-09-12 12:11:19.147,259,6B5B5B79-A063-42A5-9845-86B7C35C751C,,,,,,,,,,,,,,,,,262927.691162,-0.679962158203125,-0.7252655029296875,0.0110626220703125,262927.6789494167,-0.03603097165211804,0.0383953260678904,0.1189186647875262,,,,,,,,,,,,,,,,,,,,,,,,,,,,,,,,,0.0.0.0,10.56.9.191,1,0
2016-09-12 12:11:19.166,260,6B5B5B79-A063-42A5-9845-86B7C35C751C,,,,,,,,,,,,,,,,,262927.710755,-0.6861724853515625,-0.7254638671875,0.012847900390625,262927.6989384167,-0.04444496280011439,-0.01909832712528524,0.1051264198181149,,,,,,,,,,,,,,,,,,,,,,,,,,,,,,,,,0.0.0.0,10.56.9.191,1,0
2016-09-12 12:11:19.186,261,6B5B5B79-A063-42A5-9845-86B7C35C751C,,,,,,,,,,1473675079.175186,-40.93777465820312,-25.21514129638672,-5.979843139648438,20.64901924133301,17.02822113037109,10,262927.730347,-0.6861572265625,-0.715667724609375,0.0255279541015625,262927.7189584167,-0.01779470977169145,-0.01489372839626814,0.1011367381890672,,,,,,,,,,,,,,,,,,,,,,,,,,,,,,,,,0.0.0.0,10.56.9.191,1,0
2016-09-12 12:11:19.212,262,6B5B5B79-A063-42A5-9845-86B7C35C751C,,,,,,,,,,,,,,,,,262927.749939,-0.6810760498046875,-0.7157745361328125,0.0241241455078125,262927.7389784167,-0.006106628379551693,0.04992521569127945,0.1042821977525598,,,,,,,,,,,,,,,,,,,,,,,,,,,,,,,,,0.0.0.0,10.56.9.191,1,0
2016-09-12 12:11:19.225,263,6B5B5B79-A063-42A5-9845-86B7C35C751C,,,,,,,,,,1473675079.211679,-41.23590087890625,-25.06452178955078,-6.209548950195312,20.53379440307617,16.91299629211426,10,262927.769532,-0.691650390625,-0.7133636474609375,0.01971435546875,262927.7589674167,-0.01359969842259864,0.06378670284903287,0.1094942703219538,,,,,,,,,,,,,,,,,,,,,,,,,,,,,,,,,0.0.0.0,10.56.9.191,1,0
2016-09-12 12:11:19.245,264,6B5B5B79-A063-42A5-9845-86B7C35C751C,,,,,,,,,,,,,,,,,262927.789124,-0.69464111328125,-0.7047882080078125,0.0410919189453125,262927.7789864167,0.006582268950239845,0.01818326497473401,0.1162341984087264,,,,,,,,,,,,,,,,,,,,,,,,,,,,,,,,,0.0.0.0,10.56.9.191,1,0
2016-09-12 12:11:19.264,265,6B5B5B79-A063-42A5-9845-86B7C35C751C,,,,,,,,,,1473675079.249873,-41.76171875,-25.13724517822266,-6.139984130859375,20.183349609375,16.56255149841309,10,262927.808716,-0.6951141357421875,-0.714813232421875,0.022186279296875,,,,,,,,,,,,,,,,,,,,,,,,,,,,,,,,,,,,,0.0.0.0,10.56.9.191,1,0
2016-09-12 12:11:19.291,266,6B5B5B79-A063-42A5-9845-86B7C35C751C,,,,,,,,,,,,,,,,,262927.828339,-0.6977996826171875,-0.7154541015625,0.021636962890625,262927.8189954167,-0.06461894068968263,0.001004544363177889,0.09739073579976171,,,,,,,,,,,,,,,,,,,,,,,,,,,,,,,,,0.0.0.0,10.56.9.191,1,0
2016-09-12 12:11:19.304,267,6B5B5B79-A063-42A5-9845-86B7C35C751C,,,,,,,,,,1473675079.291264,-41.00875854492188,-24.84043121337891,-6.208831787109375,20.04092788696289,16.42012977600098,10,262927.847931,-0.6923370361328125,-0.7101898193359375,0.0224761962890625,262927.8389844167,-0.04430115210125011,-0.02035693705645669,0.08594020837685702,,,,,,,,,,,,,,,,,,,,,,,,,,,,,,,,,0.0.0.0,10.56.9.191,1,0
2016-09-12 12:11:19.323,268,6B5B5B79-A063-42A5-9845-86B7C35C751C,,,,,,,,,,,,,,,,,262927.867524,-0.7060089111328125,-0.7172088623046875,0.0145721435546875,,,,,,,,,,,,,,,,,,,,,,,,,,,,,,,,,,,,,0.0.0.0,10.56.9.191,1,0
2016-09-12 12:11:19.343,269,6B5B5B79-A063-42A5-9845-86B7C35C751C,,,,,,,,,,1473675079.325081,-41.08406066894531,-24.83975982666016,-6.059707641601562,19.95892333984375,16.33812522888184,10,262927.887116,-0.6941375732421875,-0.7088623046875,0.012176513671875,262927.8789924167,-0.06357817733567966,0.02334074274178147,0.1005388585243444,,,,,,,,,,,,,,,,,,,,,,,,,,,,,,,,,0.0.0.0,10.56.9.191,1,0
2016-09-12 12:11:19.371,270,6B5B5B79-A063-42A5-9845-86B7C35C751C,,,,,,,,,,1473675079.354928,-41.9840087890625,-24.83618927001953,-6.070083618164062,19.89059448242188,16.26979637145996,10,262927.906739,-0.7152862548828125,-0.7139739990234375,0.0180206298828125,262927.8990124167,0.03638676997375263,0.04049762543239895,0.1175593873671498,,,,,,,,,,,,,,,,,,,,,,,,,,,,,,,,,0.0.0.0,10.56.9.191,1,0
2016-09-12 12:11:19.382,271,6B5B5B79-A063-42A5-9845-86B7C35C751C,,,,,,,,,,,,,,,,,262927.926331,-0.712646484375,-0.7019805908203125,0.0233306884765625,,,,,,,,,,,,,,,,,,,,,,,,,,,,,,,,,,,,,0.0.0.0,10.56.9.191,1,0
2016-09-12 12:11:19.402,272,6B5B5B79-A063-42A5-9845-86B7C35C751C,,,,,,,,,,1473675079.40017,-41.23004150390625,-24.46475982666016,-6.289581298828125,19.44834136962891,15.82754230499268,10,262927.945923,-0.7182464599609375,-0.711761474609375,0.012939453125,262927.9390204167,-0.04359594704459713,0.03536198558629014,0.1337721794513342,,,,,,,,,,,,,,,,,,,,,,,,,,,,,,,,,0.0.0.0,10.56.9.191,1,0
2016-09-12 12:11:19.421,273,6B5B5B79-A063-42A5-9845-86B7C35C751C,,,,,,,,,,,,,,,,,262927.965516,-0.712158203125,-0.70849609375,0.0078887939453125,262927.9590404167,-0.04875981639826077,0.04151601823324524,0.1123760769375286,,,,,,,,,,,,,,,,,,,,,,,,,,,,,,,,,0.0.0.0,10.56.9.191,1,0
2016-09-12 12:11:19.451,274,6B5B5B79-A063-42A5-9845-86B7C35C751C,,,,,,,,,,1473675079.429883,-41.45658874511719,-24.61367034912109,-6.215911865234375,19.27609634399414,15.65529823303223,10,262927.985138,-0.7203216552734375,-0.7035064697265625,0.00775146484375,,,,,,,,,,,,,,,,,,,,,,,,,,,,,,,,,,,,,0.0.0.0,10.56.9.191,1,0
2016-09-12 12:11:19.460,275,6B5B5B79-A063-42A5-9845-86B7C35C751C,,,,,,,,,,1473675079.452259,-41.4503173828125,-23.93851470947266,-6.146591186523438,19.13931465148926,15.51851654052734,10,262928.004731,-0.7288360595703125,-0.69622802734375,0.01397705078125,262927.9990484167,-0.01322419270889747,-0.01531956785457181,0.05960607256982649,,,,,,,,,,,,,,,,,,,,,,,,,,,,,,,,,0.0.0.0,10.56.9.191,1,0
2016-09-12 12:11:19.480,276,6B5B5B79-A063-42A5-9845-86B7C35C751C,,,,,,,,,,1473675079.475017,-41.30075073242188,-24.01447296142578,-6.294219970703125,19.06986618041992,15.44906711578369,10,262928.024323,-0.7353668212890625,-0.69287109375,0.031982421875,262928.0190374167,-0.01969247836448192,-0.05238278074520457,0.07030052855925768,,,,,,,,,,,,,,,,,,,,,,,,,,,,,,,,,0.0.0.0,10.56.9.191,1,0
2016-09-12 12:11:19.500,277,6B5B5B79-A063-42A5-9845-86B7C35C751C,,,,,,,,,,,,,,,,,262928.043915,-0.7407989501953125,-0.69415283203125,0.0284271240234375,,,,,,,,,,,,,,,,,,,,,,,,,,,,,,,,,,,,,0.0.0.0,10.56.9.191,1,0
2016-09-12 12:11:19.531,278,6B5B5B79-A063-42A5-9845-86B7C35C751C,,,,,,,,,,1473675079.504964,-41.45059204101562,-24.01406097412109,-6.370941162109375,19.03460884094238,15.41380977630615,10,262928.063507,-0.73779296875,-0.69024658203125,0.0106201171875,262928.0390574167,-0.0420758146943799,-0.03323278829477179,0.07320550467631612,,,,,,,,,,,,,,,,,,,,,,,,,,,,,,,,,0.0.0.0,10.56.9.191,1,0
2016-09-12 12:11:19.539,279,6B5B5B79-A063-42A5-9845-86B7C35C751C,,,,,,,,,,1473675079.531217,-41.900146484375,-23.93691253662109,-6.226776123046875,18.98906517028809,15.36826610565186,10,262928.08313,-0.736541748046875,-0.6941375732421875,0.0146331787109375,262928.0790654167,-0.04186009864608348,0.002582733625158845,0.04432219107386174,,,,,,,,,,,,,,,,,,,,,,,,,,,,,,,,,0.0.0.0,10.56.9.191,1,0
2016-09-12 12:11:19.558,280,6B5B5B79-A063-42A5-9845-86B7C35C751C,,,,,,,,,,,,,,,,,262928.102723,-0.73150634765625,-0.6916961669921875,0.0109100341796875,,,,,,,,,,,,,,,,,,,,,,,,,,,,,,,,,,,,,0.0.0.0,10.56.9.191,1,0
2016-09-12 12:11:19.578,281,6B5B5B79-A063-42A5-9845-86B7C35C751C,,,,,,,,,,,,,,,,,262928.122315,-0.740081787109375,-0.6957550048828125,0.0181427001953125,262928.0990854167,-0.04272509336814122,-0.02424195645466428,0.0177323918021836,,,,,,,,,,,,,,,,,,,,,,,,,,,,,,,,,0.0.0.0,10.56.9.191,1,0
2016-09-12 12:11:19.611,282,6B5B5B79-A063-42A5-9845-86B7C35C751C,,,,,,,,,,1473675079.579981,-41.74929809570312,-23.86270904541016,-6.300674438476562,18.98280906677246,15.36201000213623,10,262928.141907,-0.737213134765625,-0.69757080078125,0.013702392578125,262928.1390944167,-0.02661030561207175,0.01273390475221388,-0.001387506927931283,,,,,,,,,,,,,,,,,,,,,,,,,,,,,,,,,0.0.0.0,10.56.9.191,1,0
2016-09-12 12:11:19.617,283,6B5B5B79-A063-42A5-9845-86B7C35C751C,,,,,,,,,,,,,,,,,262928.16153,-0.7302093505859375,-0.705322265625,0.0043182373046875,,,,,,,,,,,,,,,,,,,,,,,,,,,,,,,,,,,,,0.0.0.0,10.56.9.191,1,0
2016-09-12 12:11:19.637,284,6B5B5B79-A063-42A5-9845-86B7C35C751C,,,,,,,,,,1473675079.625128,-41.45103454589844,-24.01349639892578,-6.145965576171875,18.91058540344238,15.28978729248047,10,262928.181122,-0.723297119140625,-0.6976776123046875,0.0138092041015625,262928.1590834167,-0.04688814678415308,0.004302869373241025,0.004814728934754255,,,,,,,,,,,,,,,,,,,,,,,,,,,,,,,,,0.0.0.0,10.56.9.191,1,0
2016-09-12 12:11:19.656,285,6B5B5B79-A063-42A5-9845-86B7C35C751C,,,,,,,,,,1473675079.6549,-42.42626953125,-24.00925445556641,-6.007217407226562,18.88076591491699,15.25996685028076,10,262928.200714,-0.7184295654296875,-0.702423095703125,-0.006927490234375,262928.1990914167,-0.03620887081293534,-0.02866493439306788,0.0007558051173644878,,,,,,,,,,,,,,,,,,,,,,,,,,,,,,,,,0.0.0.0,10.56.9.191,1,0
2016-09-12 12:11:19.691,286,6B5B5B79-A063-42A5-9845-86B7C35C751C,,,,,,,,,,,,,,,,,262928.220307,-0.715789794921875,-0.6923828125,0.0071868896484375,,,,,,,,,,,,,,,,,,,,,,,,,,,,,,,,,,,,,0.0.0.0,10.56.9.191,1,0
2016-09-12 12:11:19.696,287,6B5B5B79-A063-42A5-9845-86B7C35C751C,,,,,,,,,,,,,,,,,262928.239899,-0.7212066650390625,-0.69439697265625,0.0136260986328125,262928.2191114167,-0.0234560576169819,-0.03606665801072511,0.004111920723082344,,,,,,,,,,,,,,,,,,,,,,,,,,,,,,,,,0.0.0.0,10.56.9.191,1,0
2016-09-12 12:11:19.715,288,6B5B5B79-A063-42A5-9845-86B7C35C751C,,,,,,,,,,1473675079.700022,-41.29833984375,-23.71393585205078,-6.071746826171875,18.9222526550293,15.30145359039307,10,262928.259522,-0.7245941162109375,-0.6928558349609375,0.0212554931640625,262928.2591194167,-0.009646502100485017,-0.011595403386205,0.008457666989873644,,,,,,,,,,,,,,,,,,,,,,,,,,,,,,,,,0.0.0.0,10.56.9.191,1,0
2016-09-12 12:11:19.735,289,6B5B5B79-A063-42A5-9845-86B7C35C751C,,,,,,,,,,1473675079.729876,-40.77520751953125,-23.94138336181641,-6.213790893554688,18.92535209655762,15.3045539855957,10,262928.279114,-0.7180328369140625,-0.6886749267578125,0.0144805908203125,,,,,,,,,,,,,,,,,,,,,,,,,,,,,,,,,,,,,0.0.0.0,10.56.9.191,1,0
2016-09-12 12:11:19.754,290,6B5B5B79-A063-42A5-9845-86B7C35C751C,,,,,,,,,,,,,,,,,262928.298706,-0.721527099609375,-0.695281982421875,0.0192718505859375,262928.2791394167,0.002121474124357121,-0.01485804203766108,0.001129979250520621,,,,,,,,,,,,,,,,,,,,,,,,,,,,,,,,,0.0.0.0,10.56.9.191,1,0
2016-09-12 12:11:19.774,291,6B5B5B79-A063-42A5-9845-86B7C35C751C,,,,,,,,,,,,,,,,,262928.318299,-0.7215118408203125,-0.6963958740234375,0.0151519775390625,262928.2991284167,-0.04796885755450724,-0.02541321470208113,0.007017429472358793,,,,,,,,,,,,,,,,,,,,,,,,,,,,,,,,,0.0.0.0,10.56.9.191,1,0
2016-09-12 12:11:19.794,292,6B5B5B79-A063-42A5-9845-86B7C35C751C,,,,,,,,,,1473675079.775103,-41.9747314453125,-23.86125946044922,-6.078277587890625,18.91508102416992,15.29428195953369,10,262928.337891,-0.722259521484375,-0.694976806640625,0.006622314453125,262928.3191474167,-0.03941904519091685,-0.007401723617657226,0.00279498756403816,,,,,,,,,,,,,,,,,,,,,,,,,,,,,,,,,0.0.0.0,10.56.9.191,1,0
2016-09-12 12:11:19.813,293,6B5B5B79-A063-42A5-9845-86B7C35C751C,,,,,,,,,,1473675079.805016,-41.7490234375,-23.78714752197266,-6.076309204101562,18.93451881408691,15.313720703125,10,262928.357483,-0.7229766845703125,-0.6871490478515625,0.0131988525390625,262928.3391364167,-0.04688015730088285,0.0021678131273245,0.00375452450479371,,,,,,,,,,,,,,,,,,,,,,,,,,,,,,,,,0.0.0.0,10.56.9.191,1,0
2016-09-12 12:11:19.833,294,6B5B5B79-A063-42A5-9845-86B7C35C751C,,,,,,,,,,,,,,,,,262928.377106,-0.731231689453125,-0.6973419189453125,0.001678466796875,262928.3591564167,-0.02336018381773905,0.008409197458034203,-0.008803877931583945,,,,,,,,,,,,,,,,,,,,,,,,,,,,,,,,,0.0.0.0,10.56.9.191,1,0
2016-09-12 12:11:19.852,295,6B5B5B79-A063-42A5-9845-86B7C35C751C,,,,,,,,,,,,,,,,,262928.396698,-0.728057861328125,-0.6938323974609375,0.0016937255859375,262928.3791454167,-0.02981249050678303,-0.003186205928170801,-0.0003118561636482788,,,,,,,,,,,,,,,,,,,,,,,,,,,,,,,,,0.0.0.0,10.56.9.191,1,0
2016-09-12 12:11:19.872,296,6B5B5B79-A063-42A5-9845-86B7C35C751C,,,,,,,,,,1473675079.850336,-42.27687072753906,-24.00910186767578,-5.705490112304688,18.94893074035645,15.32813167572021,10,262928.416291,-0.7304534912109375,-0.6939239501953125,0.0075531005859375,262928.3991644167,-0.006332464439990412,-0.02025573693503368,-0.007475493179852422,,,,,,,,,,,,,,,,,,,,,,,,,,,,,,,,,0.0.0.0,10.56.9.191,1,0
2016-09-12 12:11:19.892,297,6B5B5B79-A063-42A5-9845-86B7C35C751C,,,,,,,,,,1473675079.88019,-42.05058288574219,-23.93575286865234,-6.003509521484375,18.93726539611816,15.31646633148193,10,262928.435883,-0.72808837890625,-0.688629150390625,0.01348876953125,262928.4191534167,0.006508233071935642,-0.02990170640330068,-0.0158402158476823,,,,,,,,,,,,,,,,,,,,,,,,,,,,,,,,,0.0.0.0,10.56.9.191,1,0
2016-09-12 12:11:19.911,298,6B5B5B79-A063-42A5-9845-86B7C35C751C,,,,,,,,,,,,,,,,,262928.455506,-0.720428466796875,-0.6894073486328125,0.008758544921875,262928.4391734167,0.01085504460316298,-0.02258733446939805,-0.02754161304527246,,,,,,,,,,,,,,,,,,,,,,,,,,,,,,,,,0.0.0.0,10.56.9.191,1,0
2016-09-12 12:11:19.931,299,6B5B5B79-A063-42A5-9845-86B7C35C751C,,,,,,,,,,,,,,,,,262928.475098,-0.72430419921875,-0.687469482421875,0.01776123046875,262928.4591924167,-0.03600114424790916,-0.02151434686620513,-0.02698234921635582,,,,,,,,,,,,,,,,,,,,,,,,,,,,,,,,,0.0.0.0,10.56.9.191,1,0
2016-09-12 12:11:19.951,300,6B5B5B79-A063-42A5-9845-86B7C35C751C,,,,,,,,,,1473675079.931086,-41.60215759277344,-24.16327667236328,-6.296432495117188,18.99151039123535,15.37071132659912,10,262928.49469,-0.73089599609375,-0.6926116943359375,0.02752685546875,262928.4791814167,-0.05194815285530364,-0.0459746825302559,-0.03028493528416308,,,,,,,,,,,,,,,,,,,,,,,,,,,,,,,,,0.0.0.0,10.56.9.191,1,0
2016-09-12 12:11:19.970,301,6B5B5B79-A063-42A5-9845-86B7C35C751C,,,,,,,,,,1473675079.955044,-42.20271301269531,-24.16014862060547,-6.00335693359375,19.06191635131836,15.44111728668213,10,262928.514283,-0.737091064453125,-0.6917266845703125,0.0203399658203125,262928.4992014167,-0.02947693220943304,-0.04931375390499725,-0.04496055078715373,,,,,,,,,,,,,,,,,,,,,,,,,,,,,,,,,0.0.0.0,10.56.9.191,1,0
2016-09-12 12:11:19.989,302,6B5B5B79-A063-42A5-9845-86B7C35C751C,,,,,,,,,,,,,,,,,262928.533875,-0.728118896484375,-0.6867828369140625,0.036346435546875,262928.5191904167,0.00885341272785942,-0.02594824376507805,-0.04461274194878938,,,,,,,,,,,,,,,,,,,,,,,,,,,,,,,,,0.0.0.0,10.56.9.191,1,0
2016-09-12 12:11:20.011,303,6B5B5B79-A063-42A5-9845-86B7C35C751C,,,,,,,,,,1473675080.000178,-41.7523193359375,-24.08657073974609,-5.848800659179688,19.2249927520752,15.60419464111328,10,262928.553498,-0.71710205078125,-0.6994476318359375,0.0152130126953125,262928.5392094167,-0.009191101554081467,0.02495461836236949,-0.05241047762054139,,,,,,,,,,,,,,,,,,,,,,,,,,,,,,,,,0.0.0.0,10.56.9.191,1,0
2016-09-12 12:11:20.029,304,6B5B5B79-A063-42A5-9845-86B7C35C751C,,,,,,,,,,,,,,,,,262928.57309,-0.7279205322265625,-0.696136474609375,0.0081634521484375,262928.5591984167,-0.01774091391767185,0.05686035348595479,-0.04832572114057786,,,,,,,,,,,,,,,,,,,,,,,,,,,,,,,,,0.0.0.0,10.56.9.191,1,0
2016-09-12 12:11:20.048,305,6B5B5B79-A063-42A5-9845-86B7C35C751C,1473675079.999986,51.03073474024518,13.72842944228437,136.3116,0,-1,3,50,-9999,1473675080.029947,-41.154052734375,-24.31449127197266,-6.064987182617188,19.22274017333984,15.60194110870361,10,262928.592682,-0.758056640625,-0.6999969482421875,0.025970458984375,262928.5792184167,-0.01021588594154396,0.01534140577551046,-0.05772588084023055,,,,,,,,,,,,,,,,,,,,,,,,,,,,,,,,,0.0.0.0,10.56.9.191,1,0
2016-09-12 12:11:20.068,306,6B5B5B79-A063-42A5-9845-86B7C35C751C,,,,,,,,,,,,,,,,,262928.612275,-0.8014373779296875,-0.702362060546875,0.0354461669921875,262928.5992384167,-0.02697995237137474,-0.0402574083020738,-0.0940029285770719,,,,,,,,,,,,,,,,,,,,,,,,,,,,,,,,,0.0.0.0,10.56.9.191,1,0
2016-09-12 12:11:20.092,307,6B5B5B79-A063-42A5-9845-86B7C35C751C,,,,,,,,,,1473675080.075153,-41.97988891601562,-24.31009674072266,-5.624526977539062,19.42306900024414,15.80226993560791,10,262928.631867,-0.832977294921875,-0.6967926025390625,0.0252227783203125,262928.6192274167,0.008819324265906404,-0.02310851509472656,-0.1821580880325478,,,,,,,,,,,,,,,,,,,,,,,,,,,,,,,,,0.0.0.0,10.56.9.191,1,0
2016-09-12 12:11:20.107,308,6B5B5B79-A063-42A5-9845-86B7C35C751C,,,,,,,,,,1473675080.105171,-41.75788879394531,-24.68671417236328,-5.91876220703125,19.69570159912109,16.07490348815918,10,262928.65149,-0.855255126953125,-0.69818115234375,0.0242919921875,262928.6392464167,0.02130635398506994,0.04805301344495374,-0.2856394732453207,,,,,,,,,,,,,,,,,,,,,,,,,,,,,,,,,0.0.0.0,10.56.9.191,1,0
2016-09-12 12:11:20.127,309,6B5B5B79-A063-42A5-9845-86B7C35C751C,,,,,,,,,,,,,,,,,262928.671082,-0.8581695556640625,-0.686431884765625,0.0255584716796875,262928.6592354167,0.00941640498230217,0.07445479354367229,-0.4041860944285629,,,,,,,,,,,,,,,,,,,,,,,,,,,,,,,,,0.0.0.0,10.56.9.191,1,0
2016-09-12 12:11:20.146,310,6B5B5B79-A063-42A5-9845-86B7C35C751C,,,,,,,,,,,,,,,,,262928.690674,-0.8496246337890625,-0.7004547119140625,0.0337982177734375,262928.6792554167,-0.01942935804878209,0.05401636375785918,-0.5334476779416299,,,,,,,,,,,,,,,,,,,,,,,,,,,,,,,,,0.0.0.0,10.56.9.191,1,0
2016-09-12 12:11:20.171,311,6B5B5B79-A063-42A5-9845-86B7C35C751C,,,,,,,,,,1473675080.150119,-40.79203796386719,-25.74164581298828,-6.34869384765625,20.75447654724121,17.1336784362793,10,262928.710266,-0.8311309814453125,-0.7055206298828125,0.005462646484375,262928.6992444167,-0.09391477794499029,0.02169863761363861,-0.6823585966095195,,,,,,,,,,,,,,,,,,,,,,,,,,,,,,,,,0.0.0.0,10.56.9.191,1,0
2016-09-12 12:11:20.186,312,6B5B5B79-A063-42A5-9845-86B7C35C751C,,,,,,,,,,,,,,,,,262928.729859,-0.8135223388671875,-0.7005157470703125,-0.0037994384765625,262928.7192634167,-0.1577448903197914,-0.05098861591454808,-0.8321097426013291,,,,,,,,,,,,,,,,,,,,,,,,,,,,,,,,,0.0.0.0,10.56.9.191,1,0
2016-09-12 12:11:20.213,313,6B5B5B79-A063-42A5-9845-86B7C35C751C,,,,,,,,,,1473675080.180057,-41.09877014160156,-26.33910369873047,-5.822128295898438,21.79307556152344,18.17227745056152,10,262928.749482,-0.801788330078125,-0.7037353515625,-0.0016326904296875,262928.7392524167,-0.1927633281254614,-0.1120804660565298,-0.9901124269146403,,,,,,,,,,,,,,,,,,,,,,,,,,,,,,,,,0.0.0.0,10.56.9.191,1,0
2016-09-12 12:11:20.225,314,6B5B5B79-A063-42A5-9845-86B7C35C751C,,,,,,,,,,,,,,,,,262928.769074,-0.7914276123046875,-0.71502685546875,0.0067901611328125,,,,,,,,,,,,,,,,,,,,,,,,,,,,,,,,,,,,,0.0.0.0,10.56.9.191,1,0
2016-09-12 12:11:20.250,315,6B5B5B79-A063-42A5-9845-86B7C35C751C,,,,,,,,,,1473675080.225171,-39.91339111328125,-27.91934967041016,-6.020065307617188,25.09757614135742,21.47677803039551,10,262928.788666,-0.762054443359375,-0.7012481689453125,0.0177001953125,262928.7792914167,-0.1131683673618271,-0.1390630815889946,-1.238667914612826,,,,,,,,,,,,,,,,,,,,,,,,,,,,,,,,,0.0.0.0,10.56.9.191,1,0
2016-09-12 12:11:20.264,316,6B5B5B79-A063-42A5-9845-86B7C35C751C,,,,,,,,,,1473675080.255134,-38.65458679199219,-29.64968109130859,-6.140884399414062,27.0987663269043,23.47796821594238,10,262928.808258,-0.72589111328125,-0.7168731689453125,0.0052337646484375,262928.7992804167,-0.08372552361434712,-0.1070889032253943,-1.331197049842648,,,,,,,,,,,,,,,,,,,,,,,,,,,,,,,,,0.0.0.0,10.56.9.191,1,0
2016-09-12 12:11:20.283,317,6B5B5B79-A063-42A5-9845-86B7C35C751C,,,,,,,,,,,,,,,,,262928.827851,-0.685272216796875,-0.73779296875,0.0064239501953125,,,,,,,,,,,,,,,,,,,,,,,,,,,,,,,,,,,,,0.0.0.0,10.56.9.191,1,0
2016-09-12 12:11:20.303,318,6B5B5B79-A063-42A5-9845-86B7C35C751C,,,,,,,,,,1473675080.300247,-37.70219421386719,-32.05377960205078,-6.259506225585938,31.4668083190918,27.84601020812988,10,262928.847474,-0.651580810546875,-0.749298095703125,-0.0048980712890625,262928.8392894167,-0.1517346683717006,-0.1150991591521346,-1.491833334157938,,,,,,,,,,,,,,,,,,,,,,,,,,,,,,,,,0.0.0.0,10.56.9.191,1,0
2016-09-12 12:11:20.330,319,6B5B5B79-A063-42A5-9845-86B7C35C751C,,,,,,,,,,,,,,,,,262928.866988125,-0.6275634765625,-0.751800537109375,-0.02044677734375,262928.859230875,-0.1571962791352351,-0.1567243669900731,-1.615454076166108,,,,,,,,,,,,,,,,,,,,,,,,,,,,,,,,,0.0.0.0,10.56.9.191,1,0
2016-09-12 12:11:20.342,320,6B5B5B79-A063-42A5-9845-86B7C35C751C,,,,,,,,,,1473675080.330146,-36.07426452636719,-34.38539886474609,-6.29595947265625,33.97078323364258,30.34998512268066,10,262928.886580125,-0.599273681640625,-0.76251220703125,0.0071258544921875,,,,,,,,,,,,,,,,,,,,,,,,,,,,,,,,,,,,,0.0.0.0,10.56.9.191,1,0
2016-09-12 12:11:20.362,321,6B5B5B79-A063-42A5-9845-86B7C35C751C,,,,,,,,,,,,,,,,,262928.906172125,-0.5327301025390625,-0.7690277099609375,-0.0047760009765625,262928.899239875,-0.1539823763317275,-0.06088918358302666,-1.902486116345431,,,,,,,,,,,,,,,,,,,,,,,,,,,,,,,,,0.0.0.0,10.56.9.191,1,0
2016-09-12 12:11:20.381,322,6B5B5B79-A063-42A5-9845-86B7C35C751C,,,,,,,,,,1473675080.375246,-34.75177001953125,-37.24021148681641,-6.106491088867188,39.68586349487305,36.0650634765625,10,262928.925795125,-0.4862213134765625,-0.7884063720703125,0.0101318359375,262928.919228875,-0.1831956555932427,-0.04259087004920122,-1.982814245357164,,,,,,,,,,,,,,,,,,,,,,,,,,,,,,,,,0.0.0.0,10.56.9.191,1,0
2016-09-12 12:11:20.411,323,6B5B5B79-A063-42A5-9845-86B7C35C751C,,,,,,,,,,,,,,,,,262928.945387125,-0.4652557373046875,-0.8196258544921875,0.0106353759765625,,,,,,,,,,,,,,,,,,,,,,,,,,,,,,,,,,,,,0.0.0.0,10.56.9.191,1,0
2016-09-12 12:11:20.421,324,6B5B5B79-A063-42A5-9845-86B7C35C751C,,,,,,,,,,1473675080.411513,-33.18455505371094,-38.07160186767578,-6.156402587890625,42.71468353271484,39.0938835144043,10,262928.964980125,-0.441131591796875,-0.829010009765625,-0.014862060546875,262928.959267875,-0.2343027821762993,-0.03197018362196522,-1.983393216578148,,,,,,,,,,,,,,,,,,,,,,,,,,,,,,,,,0.0.0.0,10.56.9.191,1,0
2016-09-12 12:11:20.440,325,6B5B5B79-A063-42A5-9845-86B7C35C751C,,,,,,,,,,,,,,,,,262928.984572125,-0.394744873046875,-0.8280792236328125,-0.0267333984375,262928.979256875,-0.2445586155341945,-0.05162244825398694,-2.035692107749015,,,,,,,,,,,,,,,,,,,,,,,,,,,,,,,,,0.0.0.0,10.56.9.191,1,0
2016-09-12 12:11:20.460,326,6B5B5B79-A063-42A5-9845-86B7C35C751C,,,,,,,,,,1473675080.450249,-28.72117614746094,-42.06610870361328,-6.821121215820312,48.81087112426758,45.19007110595703,10,262929.004164125,-0.3606109619140625,-0.85015869140625,0.0115203857421875,,,,,,,,,,,,,,,,,,,,,,,,,,,,,,,,,,,,,0.0.0.0,10.56.9.191,1,0
2016-09-12 12:11:20.491,327,6B5B5B79-A063-42A5-9845-86B7C35C751C,,,,,,,,,,,,,,,,,262929.023757125,-0.298004150390625,-0.8811492919921875,-0.0090484619140625,262928.999276875,-0.2856277553365244,-0.05861724085708007,-2.096886755909074,,,,,,,,,,,,,,,,,,,,,,,,,,,,,,,,,0.0.0.0,10.56.9.191,1,0
2016-09-12 12:11:20.499,328,6B5B5B79-A063-42A5-9845-86B7C35C751C,,,,,,,,,,1473675080.491325,-28.3587646484375,-43.34195709228516,-6.581100463867188,52.0099983215332,48.38919830322266,10,262929.043349125,-0.2203216552734375,-0.9214630126953125,-0.03558349609375,262929.039284875,-0.2642612139108187,0.02624997991658403,-2.106486652690482,,,,,,,,,,,,,,,,,,,,,,,,,,,,,,,,,0.0.0.0,10.56.9.191,1,0
2016-09-12 12:11:20.519,329,6B5B5B79-A063-42A5-9845-86B7C35C751C,,,,,,,,,,,,,,,,,262929.062972125,-0.1859283447265625,-0.9199981689453125,-0.025360107421875,,,,,,,,,,,,,,,,,,,,,,,,,,,,,,,,,,,,,0.0.0.0,10.56.9.191,1,0
2016-09-12 12:11:20.538,330,6B5B5B79-A063-42A5-9845-86B7C35C751C,,,,,,,,,,1473675080.525374,-22.68548583984375,-46.29131317138672,-7.240798950195312,58.21994781494141,54.59914779663086,10,262929.082564125,-0.157958984375,-0.93896484375,-0.0347442626953125,262929.059273875,-0.2381462562615017,-0.04103451870815892,-2.038850883117958,,,,,,,,,,,,,,,,,,,,,,,,,,,,,,,,,0.0.0.0,10.56.9.191,1,0
2016-09-12 12:11:20.571,331,6B5B5B79-A063-42A5-9845-86B7C35C751C,,,,,,,,,,1473675080.555211,-21.2677001953125,-47.04692840576172,-7.218063354492188,61.25920486450195,57.63840484619141,10,262929.102156125,-0.090484619140625,-0.93096923828125,-0.052825927734375,262929.099282875,-0.2487514963544152,-0.1415954814695509,-1.902216604443115,,,,,,,,,,,,,,,,,,,,,,,,,,,,,,,,,0.0.0.0,10.56.9.191,1,0
2016-09-12 12:11:20.578,332,6B5B5B79-A063-42A5-9845-86B7C35C751C,,,,,,,,,,,,,,,,,262929.121749125,-0.0461883544921875,-0.929168701171875,-0.070709228515625,,,,,,,,,,,,,,,,,,,,,,,,,,,,,,,,,,,,,0.0.0.0,10.56.9.191,1,0
2016-09-12 12:11:20.597,333,6B5B5B79-A063-42A5-9845-86B7C35C751C,,,,,,,,,,,,,,,,,262929.141341125,-0.01275634765625,-0.93536376953125,-0.070770263671875,262929.119301875,-0.1434628900259145,-0.1371834224916167,-1.885103663910484,,,,,,,,,,,,,,,,,,,,,,,,,,,,,,,,,0.0.0.0,10.56.9.191,1,0
2016-09-12 12:11:20.617,334,6B5B5B79-A063-42A5-9845-86B7C35C751C,,,,,,,,,,1473675080.600302,-18.50926208496094,-48.85877227783203,-7.545944213867188,67.12057495117188,63.49977493286133,10,262929.160964125,0.0352935791015625,-0.9283447265625,-0.0746002197265625,262929.159310875,-0.1201186851747159,-0.1976121455221686,-1.874024114827428,,,,,,,,,,,,,,,,,,,,,,,,,,,,,,,,,0.0.0.0,10.56.9.191,1,0
2016-09-12 12:11:20.638,335,6B5B5B79-A063-42A5-9845-86B7C35C751C,,,,,,,,,,1473675080.630154,-14.69290161132812,-49.77410125732422,-7.56927490234375,70.04535675048828,66.424560546875,10,262929.180556125,0.088836669921875,-0.9669952392578125,-0.080291748046875,,,,,,,,,,,,,,,,,,,,,,,,,,,,,,,,,,,,,0.0.0.0,10.56.9.191,1,0
2016-09-12 12:11:20.656,336,6B5B5B79-A063-42A5-9845-86B7C35C751C,,,,,,,,,,,,,,,,,262929.200148125,0.1191253662109375,-0.99017333984375,-0.0938873291015625,262929.179329875,-0.1035064189270197,-0.2161506761863192,-1.817286799383835,,,,,,,,,,,,,,,,,,,,,,,,,,,,,,,,,0.0.0.0,10.56.9.191,1,0
2016-09-12 12:11:20.675,337,6B5B5B79-A063-42A5-9845-86B7C35C751C,,,,,,,,,,,,,,,,,262929.219740125,0.1619110107421875,-0.9716796875,-0.0768280029296875,262929.219338875,0.04614352694336693,-0.3213122497308231,-1.609614562843892,,,,,,,,,,,,,,,,,,,,,,,,,,,,,,,,,0.0.0.0,10.56.9.191,1,0
2016-09-12 12:11:20.695,338,6B5B5B79-A063-42A5-9845-86B7C35C751C,,,,,,,,,,1473675080.6755,-12.30305480957031,-50.83356475830078,-7.532791137695312,75.82312774658203,72.20233154296875,10,262929.239333125,0.1987762451171875,-0.9408416748046875,-0.0839385986328125,,,,,,,,,,,,,,,,,,,,,,,,,,,,,,,,,,,,,0.0.0.0,10.56.9.191,1,0
2016-09-12 12:11:20.715,339,6B5B5B79-A063-42A5-9845-86B7C35C751C,,,,,,,,,,,,,,,,,262929.258956125,0.2418365478515625,-0.9363555908203125,-0.0696868896484375,262929.239327875,0.03925179867445987,-0.3386795221475569,-1.542471478073032,,,,,,,,,,,,,,,,,,,,,,,,,,,,,,,,,0.0.0.0,10.56.9.191,1,0
2016-09-12 12:11:20.740,340,6B5B5B79-A063-42A5-9845-86B7C35C751C,,,,,,,,,,1473675080.705295,-9.084564208984375,-51.36965179443359,-6.81622314453125,78.55515289306641,74.93435668945312,10,262929.278548125,0.2931060791015625,-0.94818115234375,-0.066925048828125,262929.259346875,0.1924693151411166,-0.3300410265196669,-1.526987060546984,,,,,,,,,,,,,,,,,,,,,,,,,,,,,,,,,0.0.0.0,10.56.9.191,1,0
2016-09-12 12:11:20.754,341,6B5B5B79-A063-42A5-9845-86B7C35C751C,,,,,,,,,,1473675080.750987,-6.313720703125,-51.83101654052734,-6.930435180664062,83.93183135986328,80.31103515625,10,262929.298140125,0.306121826171875,-0.918853759765625,-0.062530517578125,262929.279335875,0.2696354729905986,-0.3855663373511649,-1.451371395084146,,,,,,,,,,,,,,,,,,,,,,,,,,,,,,,,,0.0.0.0,10.56.9.191,1,0
2016-09-12 12:11:20.773,342,6B5B5B79-A063-42A5-9845-86B7C35C751C,,,,,,,,,,,,,,,,,262929.317732125,0.343231201171875,-0.912567138671875,-0.0408172607421875,262929.299355875,0.1564782909053498,-0.3872864730992471,-1.413135059733334,,,,,,,,,,,,,,,,,,,,,,,,,,,,,,,,,0.0.0.0,10.56.9.191,1,0
2016-09-12 12:11:20.793,343,6B5B5B79-A063-42A5-9845-86B7C35C751C,,,,,,,,,,1473675080.780304,-4.819992065429688,-52.36045074462891,-6.308746337890625,86.51398468017578,82.8931884765625,10,262929.337355125,0.3871002197265625,-0.903564453125,-0.0548095703125,262929.319374875,0.0903290978533076,-0.2097353874364274,-1.396211203638098,,,,,,,,,,,,,,,,,,,,,,,,,,,,,,,,,0.0.0.0,10.56.9.191,1,0
2016-09-12 12:11:20.813,344,6B5B5B79-A063-42A5-9845-86B7C35C751C,,,,,,,,,,,,,,,,,262929.356948125,0.4412994384765625,-0.915985107421875,-0.06884765625,262929.339363875,0.1039628847378593,-0.07987912005194568,-1.368702081158125,,,,,,,,,,,,,,,,,,,,,,,,,,,,,,,,,0.0.0.0,10.56.9.191,1,0
2016-09-12 12:11:20.832,345,6B5B5B79-A063-42A5-9845-86B7C35C751C,,,,,,,,,,1473675080.825421,-1.1480712890625,-52.67501068115234,-6.26385498046875,90.90158843994141,87.28079223632812,10,262929.376540125,0.4666748046875,-0.89874267578125,-0.0634613037109375,262929.359383875,0.179039526396065,-0.1290866138294488,-1.29845721266565,,,,,,,,,,,,,,,,,,,,,,,,,,,,,,,,,0.0.0.0,10.56.9.191,1,0
2016-09-12 12:11:20.852,346,6B5B5B79-A063-42A5-9845-86B7C35C751C,,,,,,,,,,,,,,,,,262929.396132125,0.4738616943359375,-0.8808135986328125,-0.051055908203125,262929.379372875,0.2124637959732135,-0.2875124744399735,-1.211300205986735,,,,,,,,,,,,,,,,,,,,,,,,,,,,,,,,,0.0.0.0,10.56.9.191,1,0
2016-09-12 12:11:20.871,347,6B5B5B79-A063-42A5-9845-86B7C35C751C,,,,,,,,,,1473675080.855339,0.05169677734375,-52.67958831787109,-6.175018310546875,93.08457183837891,89.46377563476562,10,262929.415755125,0.474273681640625,-0.8598785400390625,-0.039276123046875,262929.399391875,0.1598045791068587,-0.4047360371936643,-1.146506295613434,,,,,,,,,,,,,,,,,,,,,,,,,,,,,,,,,0.0.0.0,10.56.9.191,1,0
2016-09-12 12:11:20.891,348,6B5B5B79-A063-42A5-9845-86B7C35C751C,,,,,,,,,,,,,,,,,262929.435347125,0.498626708984375,-0.8311767578125,-0.0283966064453125,262929.419380875,0.1350600841544965,-0.3810211203187267,-1.112720102444144,,,,,,,,,,,,,,,,,,,,,,,,,,,,,,,,,0.0.0.0,10.56.9.191,1,0
2016-09-12 12:11:20.911,349,6B5B5B79-A063-42A5-9845-86B7C35C751C,,,,,,,,,,1473675080.900463,1.625411987304688,-52.68434906005859,-5.556884765625,97.46213531494141,93.84133911132812,10,262929.454939125,0.49603271484375,-0.8250885009765625,-0.0483856201171875,262929.439400875,0.08177555706419111,-0.2906797719244047,-1.107145307334281,,,,,,,,,,,,,,,,,,,,,,,,,,,,,,,,,0.0.0.0,10.56.9.191,1,0
2016-09-12 12:11:20.930,350,6B5B5B79-A063-42A5-9845-86B7C35C751C,,,,,,,,,,,,,,,,,262929.474532125,0.5014801025390625,-0.810302734375,-0.05487060546875,262929.459389875,0.04476560739535993,-0.2156223050260475,-1.141868134258953,,,,,,,,,,,,,,,,,,,,,,,,,,,,,,,,,0.0.0.0,10.56.9.191,1,0
2016-09-12 12:11:20.950,351,6B5B5B79-A063-42A5-9845-86B7C35C751C,,,,,,,,,,1473675080.930353,4.325546264648438,-52.69544219970703,-5.67572021484375,99.42026519775391,95.79946899414062,10,262929.494155125,0.5245361328125,-0.790435791015625,-0.0421600341796875,262929.479409875,0.1557933258729814,-0.1905366591380461,-1.18019182129352,,,,,,,,,,,,,,,,,,,,,,,,,,,,,,,,,0.0.0.0,10.56.9.191,1,0
2016-09-12 12:11:20.971,352,6B5B5B79-A063-42A5-9845-86B7C35C751C,,,,,,,,,,,,,,,,,262929.513747125,0.5464324951171875,-0.794677734375,-0.0353240966796875,262929.499428875,0.2081809003081481,-0.1770245787153111,-1.208452487833114,,,,,,,,,,,,,,,,,,,,,,,,,,,,,,,,,0.0.0.0,10.56.9.191,1,0
2016-09-12 12:11:20.989,353,6B5B5B79-A063-42A5-9845-86B7C35C751C,,,,,,,,,,,,,,,,,262929.533339125,0.5704498291015625,-0.8160552978515625,-0.0328521728515625,262929.519417875,0.1528148465098368,-0.1706521668589695,-1.20906554751605,,,,,,,,,,,,,,,,,,,,,,,,,,,,,,,,,0.0.0.0,10.56.9.191,1,0
2016-09-12 12:11:21.009,354,6B5B5B79-A063-42A5-9845-86B7C35C751C,,,,,,,,,,1473675080.991645,6.426834106445312,-52.47785186767578,-5.278411865234375,103.5209426879883,99.900146484375,10,262929.552962125,0.6020050048828125,-0.820770263671875,-0.0372314453125,262929.539437875,0.04478957584517065,-0.1381240509886327,-1.145280176247562,,,,,,,,,,,,,,,,,,,,,,,262929.523861125,unknown,2,2016-09-12 12:11:20.969,,,,,,,0.0.0.0,10.56.9.191,1,0
2016-09-12 12:11:21.028,355,6B5B5B79-A063-42A5-9845-86B7C35C751C,,,,,,,,,,1473675081.020591,8.753097534179688,-52.33708953857422,-5.252853393554688,107.2946548461914,103.6738586425781,10,262929.572554125,0.6201324462890625,-0.8161773681640625,-0.0480499267578125,262929.559426875,0.05270022954714201,-0.1118045625675976,-1.064238053747579,,,,,,,,,,,,,,,,,,,,,,,,,,,,,,,,,0.0.0.0,10.56.9.191,1,0
2016-09-12 12:11:21.051,356,6B5B5B79-A063-42A5-9845-86B7C35C751C,1473675081.000008,51.03072145492865,13.72860906646934,136.197,0,-1,3,50,-9999,,,,,,,,262929.592147125,0.6268463134765625,-0.8050384521484375,-0.0457000732421875,262929.579445875,0.1191871114254062,-0.07170001971209432,-0.9847363036220973,,,,,,,,,,,,,,,,,,,,,,,,,,,,,,,,,0.0.0.0,10.56.9.191,1,0
2016-09-12 12:11:21.067,357,6B5B5B79-A063-42A5-9845-86B7C35C751C,,,,,,,,,,1473675081.05047,10.48312377929688,-51.74323272705078,-4.938018798828125,108.934455871582,105.3136596679688,10,262929.611739125,0.629425048828125,-0.7816009521484375,-0.04412841796875,262929.599434875,0.171880416753714,-0.03272305926213062,-0.9117768750305045,,,,,,,,,,,,,,,,,,,,,,,,,,,,,,,,,0.0.0.0,10.56.9.191,1,0
2016-09-12 12:11:21.087,358,6B5B5B79-A063-42A5-9845-86B7C35C751C,,,,,,,,,,1473675081.080415,10.8583984375,-51.74509429931641,-5.08367919921875,110.4350357055664,106.8142395019531,10,262929.631331125,0.6352081298828125,-0.7623443603515625,-0.042816162109375,262929.619454875,0.2056002972118613,-0.06410468428318833,-0.8644157508367534,,,,,,,,,,,,,,,,,,,,,,,,,,,,,,,,,0.0.0.0,10.56.9.191,1,0
